time, Acceleration x, Acceleration y, acceleration z, distance
1780,0.00,0.00,0.00,24.90
1796,0.00,0.00,0.00,27.46
1811,0.00,0.00,0.00,27.44
1826,0.00,0.00,0.00,27.46
1842,0.00,0.00,0.00,27.46
1857,0.00,0.00,0.00,27.46
1872,0.00,0.00,0.00,27.46
1888,0.00,0.00,0.00,27.46
1903,0.00,0.00,0.00,27.44
1918,0.00,0.00,0.00,27.44
1934,0.00,0.00,0.00,27.46
1949,0.00,0.00,0.00,27.46
1965,0.00,0.00,0.00,27.46
1980,0.00,0.00,0.00,27.44
1995,0.00,0.00,0.00,27.46
2011,0.00,0.00,0.00,27.46
2026,0.00,0.00,0.00,27.44
2041,0.00,0.00,0.00,27.46
2057,0.00,0.00,0.00,27.46
2072,0.00,0.00,0.00,27.44
2087,0.00,0.00,0.00,27.46
2103,0.00,0.00,0.00,27.46
2118,0.00,0.00,0.00,27.44
2134,0.00,0.00,0.00,27.44
2149,0.00,0.00,0.00,27.46
2164,0.00,0.00,0.00,27.46
2180,0.00,0.00,0.00,27.46
2195,0.00,0.00,0.00,27.44
2210,0.00,0.00,0.00,27.44
2226,0.00,0.00,0.00,27.46
2242,0.00,0.00,0.00,27.44
2259,0.00,0.00,0.00,27.44
2276,-0.14,-0.65,9.89,27.55
2294,-0.14,-0.64,9.32,27.46
2312,-0.15,-0.61,9.42,27.44
2328,-0.16,-0.65,9.42,27.46
2345,-0.13,-0.61,9.41,27.46
2361,-0.14,-0.64,9.43,27.44
2377,-0.13,-0.63,9.43,27.56
2396,-0.14,-0.64,9.40,27.56
2411,-0.14,-0.62,9.43,27.46
2427,-0.16,-0.61,9.45,27.44
2445,-0.15,-0.65,9.41,27.55
2461,-0.15,-0.66,9.44,27.44
2478,-0.15,-0.65,9.41,27.46
2495,-0.14,-0.60,9.41,27.55
2511,-0.15,-0.62,9.44,27.49
2528,-0.14,-0.63,9.43,27.44
2545,-0.16,-0.63,9.41,27.56
2562,-0.12,-0.63,9.43,27.46
2578,-0.14,-0.62,9.44,27.56
2596,-0.14,-0.62,9.43,27.56
2612,-0.14,-0.62,9.42,27.46
2628,-0.14,-0.61,9.41,27.55
2647,-0.15,-0.64,9.44,27.55
2662,-0.15,-0.61,9.42,27.44
2678,-0.15,-0.62,9.42,27.55
2697,-0.14,-0.63,9.41,27.46
2712,-0.16,-0.61,9.44,27.44
2729,-0.17,-0.64,9.43,27.56
2747,-0.16,-0.62,9.40,27.46
2762,-0.14,-0.63,9.44,27.46
2780,-0.14,-0.62,9.44,27.46
2797,-0.15,-0.65,9.43,27.44
2812,-0.13,-0.63,9.44,27.55
2830,-0.14,-0.64,9.44,27.46
2847,-0.15,-0.64,9.41,27.55
2863,-0.14,-0.65,9.42,27.55
2880,-0.15,-0.65,9.42,27.46
2897,-0.16,-0.64,9.43,27.56
2914,-0.14,-0.64,9.45,27.55
2930,-0.14,-0.62,9.46,27.46
2948,-0.14,-0.63,9.40,27.56
2964,-0.14,-0.64,9.46,27.55
2980,-0.17,-0.64,9.45,27.56
2999,-0.15,-0.65,9.40,27.56
3014,-0.14,-0.59,9.42,27.46
3031,-0.15,-0.63,9.44,27.56
3049,-0.14,-0.63,9.44,27.46
3064,-0.13,-0.63,9.44,27.46
3082,-0.14,-0.62,9.44,27.56
3099,-0.14,-0.62,9.41,27.46
3115,-0.14,-0.61,9.44,27.44
3132,-0.14,-0.62,9.43,27.46
3149,-0.14,-0.60,9.41,27.44
3165,-0.15,-0.63,9.44,27.56
3182,-0.14,-0.61,9.42,27.46
3200,-0.13,-0.61,9.43,27.44
3215,-0.15,-0.63,9.40,27.56
3232,-0.12,-0.63,9.43,27.44
3250,-0.14,-0.64,9.43,27.46
3265,-0.15,-0.61,9.42,27.55
3282,-0.13,-0.64,9.42,27.44
3300,-0.14,-0.66,9.43,27.55
3316,-0.14,-0.61,9.41,27.56
3333,-0.15,-0.63,9.46,27.44
3350,-0.15,-0.65,9.45,27.55
3366,-0.13,-0.62,9.42,27.55
3383,-0.15,-0.63,9.43,27.55
3400,-0.14,-0.62,9.40,27.56
3417,-0.14,-0.61,9.43,27.46
3433,-0.14,-0.62,9.40,27.56
3451,-0.15,-0.62,9.42,27.56
3467,-0.12,-0.63,9.42,27.46
3483,-0.14,-0.62,9.43,27.56
3502,-0.14,-0.63,9.42,27.46
3517,-0.14,-0.64,9.44,27.46
3534,-0.15,-0.63,9.43,27.56
3552,-0.12,-0.60,9.43,27.46
3567,-0.14,-0.62,9.43,27.46
3585,-0.14,-0.62,9.46,27.46
3602,-0.14,-0.60,9.43,27.46
3617,-0.14,-0.63,9.45,27.56
3635,-0.18,-0.61,9.44,27.46
3652,-0.14,-0.65,9.44,27.44
3667,-0.14,-0.62,9.43,27.56
3685,-0.15,-0.61,9.44,27.46
3702,-0.13,-0.62,9.43,27.56
3718,-0.15,-0.63,9.46,27.55
3735,-0.15,-0.64,9.44,27.46
3752,-0.15,-0.61,9.43,27.56
3769,-0.15,-0.60,9.42,27.55
3785,-0.14,-0.64,9.44,27.46
3803,-0.15,-0.62,9.43,27.56
3819,-0.14,-0.63,9.41,27.46
3835,-0.16,-0.62,9.45,27.56
3853,-0.14,-0.61,9.41,27.56
3869,-0.13,-0.63,9.45,27.44
3886,-0.13,-0.62,9.43,27.56
3904,-0.14,-0.63,9.43,27.55
3919,-0.16,-0.64,9.41,27.46
3936,-0.13,-0.64,9.44,27.55
3954,-0.14,-0.65,9.43,27.46
3970,-0.14,-0.65,9.42,27.46
3987,-0.15,-0.64,9.44,27.56
4004,-0.13,-0.61,9.43,27.46
4020,-0.14,-0.63,9.39,27.46
4037,-0.16,-0.63,9.45,27.51
4055,-0.14,-0.64,9.42,27.46
4070,-0.14,-0.62,9.45,27.44
4087,-0.13,-0.62,9.46,27.46
4105,-0.13,-0.62,9.42,27.46
4120,-0.15,-0.64,9.43,27.56
4137,-0.15,-0.63,9.44,27.46
4155,-0.14,-0.64,9.40,27.46
4170,-0.14,-0.64,9.42,27.56
4188,-0.16,-0.64,9.43,27.46
4205,-0.13,-0.64,9.42,27.56
4221,-0.16,-0.62,9.44,27.56
4238,-0.15,-0.62,9.43,27.46
4255,-0.14,-0.62,9.42,27.56
4272,-0.12,-0.61,9.44,27.56
4288,-0.14,-0.65,9.43,27.56
4305,-0.13,-0.62,9.39,27.56
4322,-0.14,-0.63,9.45,27.46
4338,-0.15,-0.62,9.44,27.56
4357,-0.15,-0.62,9.39,27.46
4372,-0.14,-0.62,9.40,27.46
4389,-0.15,-0.62,9.43,27.56
4407,-0.16,-0.64,9.41,27.46
4422,-0.14,-0.63,9.42,27.46
4440,-0.14,-0.63,9.46,27.44
4457,-0.13,-0.65,9.43,27.46
4472,-0.16,-0.64,9.44,27.55
4490,-0.16,-0.62,9.45,27.44
4507,-0.15,-0.64,9.42,27.46
4523,-0.15,-0.64,9.41,27.56
4540,-0.16,-0.61,9.45,27.46
4557,-0.15,-0.63,9.39,27.56
4573,-0.12,-0.61,9.40,27.56
4590,-0.14,-0.61,9.44,27.44
4608,-0.15,-0.62,9.39,27.55
4624,-0.15,-0.64,9.46,27.46
4640,-0.16,-0.63,9.42,27.44
4658,-0.12,-0.64,9.45,27.56
4674,-0.14,-0.63,9.42,27.46
4690,-0.17,-0.63,9.45,27.56
4709,-0.16,-0.65,9.41,27.56
4724,-0.14,-0.64,9.42,27.46
4741,-0.14,-0.63,9.43,27.56
4759,-0.14,-0.62,9.45,27.46
4774,-0.16,-0.63,9.45,27.46
4792,-0.15,-0.64,9.43,27.56
4809,-0.16,-0.62,9.42,27.46
4825,-0.14,-0.63,9.47,27.46
4842,-0.13,-0.64,9.43,27.44
4859,-0.12,-0.62,9.42,27.44
4875,-0.15,-0.63,9.42,27.46
4892,-0.13,-0.63,9.41,27.46
4910,-0.14,-0.61,9.41,27.44
4925,-0.16,-0.63,9.46,27.56
4942,-0.13,-0.62,9.43,27.46
4960,-0.14,-0.64,9.41,27.46
4975,-0.15,-0.64,9.45,27.56
4993,-0.14,-0.61,9.40,27.44
5010,-0.14,-0.62,9.44,27.55
5025,-0.14,-0.63,9.46,27.56
5043,-0.14,-0.62,9.41,27.46
5060,-0.14,-0.61,9.42,27.56
5076,-0.13,-0.64,9.45,27.56
5093,-0.13,-0.62,9.43,27.56
5111,-0.15,-0.65,9.42,27.56
5127,-0.14,-0.64,9.42,27.46
5143,-0.16,-0.64,9.45,27.56
5161,-0.16,-0.64,9.42,27.56
5177,-0.16,-0.64,9.45,27.44
5193,-0.13,-0.62,9.49,27.56
5212,-0.14,-0.64,9.43,27.46
5227,-0.14,-0.62,9.43,27.46
5244,-0.15,-0.63,9.44,27.56
5262,-0.14,-0.63,9.42,27.46
5277,-0.13,-0.63,9.42,27.44
5295,-0.14,-0.61,9.45,27.46
5312,-0.12,-0.62,9.42,27.46
5327,-0.13,-0.62,9.45,27.56
5345,-0.16,-0.61,9.44,27.46
5362,-0.14,-0.66,9.40,27.46
5378,-0.14,-0.63,9.45,27.56
5395,-0.14,-0.62,9.44,27.46
5412,-0.12,-0.64,9.40,27.56
5429,-0.13,-0.66,9.42,27.56
5445,-0.13,-0.64,9.41,27.46
5463,-0.15,-0.62,9.42,27.56
5479,-0.15,-0.64,9.45,27.55
5495,-0.12,-0.63,9.43,27.44
5513,-0.14,-0.64,9.42,27.56
5529,-0.15,-0.62,9.44,27.46
5545,-0.16,-0.65,9.44,27.56
5564,-0.15,-0.66,9.45,27.56
5579,-0.13,-0.65,9.43,27.46
5596,-0.14,-0.64,9.43,27.56
5614,-0.13,-0.63,9.42,27.56
5629,-0.12,-0.64,9.43,27.46
5646,-0.15,-0.61,9.46,27.56
5664,-0.16,-0.64,9.41,27.46
5680,-0.13,-0.63,9.46,27.44
5697,-0.14,-0.62,9.45,27.56
5714,-0.15,-0.63,9.39,27.46
5730,-0.14,-0.63,9.45,27.46
5747,-0.15,-0.60,9.44,27.44
5765,-0.15,-0.61,9.43,27.46
5780,-0.13,-0.65,9.43,27.46
5797,-0.13,-0.66,9.44,27.46
5815,-0.15,-0.64,9.40,27.44
5830,-0.13,-0.60,9.44,27.56
5848,-0.15,-0.63,9.48,27.46
5865,-0.15,-0.63,9.43,27.56
5880,-0.13,-0.62,9.43,27.56
5898,-0.15,-0.62,9.47,27.46
5915,-0.16,-0.63,9.45,27.56
5932,-0.14,-0.63,9.43,27.55
5948,-0.14,-0.63,9.43,27.51
5966,-0.15,-0.65,9.41,27.55
5982,-0.14,-0.63,9.46,27.44
5998,-0.15,-0.64,9.43,27.56
6017,-0.14,-0.65,9.42,27.55
6032,-0.15,-0.63,9.45,27.46
6049,-0.13,-0.62,9.43,27.56
6067,-0.16,-0.62,9.41,27.46
6082,-0.16,-0.64,9.41,27.46
6099,-0.15,-0.64,9.42,27.56
6117,-0.14,-0.64,9.40,27.46
6132,-0.12,-0.61,9.43,27.44
6150,-0.16,-0.63,9.41,27.46
6167,-0.15,-0.62,9.41,27.46
6182,-0.15,-0.65,9.41,27.44
6200,-0.14,-0.64,9.44,27.46
6217,-0.15,-0.60,9.43,27.46
6233,-0.14,-0.63,9.42,27.56
6250,-0.14,-0.63,9.43,27.46
6267,-0.16,-0.63,9.42,27.56
6283,-0.16,-0.63,9.43,27.56
6300,-0.14,-0.64,9.43,27.46
6318,-0.14,-0.61,9.42,27.56
6334,-0.13,-0.65,9.41,27.55
6350,-0.15,-0.62,9.44,27.55
6368,-0.14,-0.63,9.41,27.56
6384,-0.16,-0.62,9.43,27.46
6401,-0.16,-0.63,9.43,27.56
6419,-0.17,-0.64,9.44,27.56
6434,-0.15,-0.64,9.44,27.44
6452,-0.14,-0.63,9.42,27.55
6469,-0.14,-0.64,9.41,27.46
6484,-0.14,-0.62,9.46,27.44
6502,-0.16,-0.64,9.44,27.46
6519,-0.15,-0.62,9.41,27.46
6535,-0.14,-0.64,9.41,27.46
6552,-0.14,-0.63,9.42,27.44
6569,-0.16,-0.63,9.42,27.46
6585,-0.15,-0.63,9.44,27.56
6602,-0.14,-0.64,9.45,27.44
6620,-0.14,-0.62,9.41,27.46
6635,-0.15,-0.65,9.44,27.55
6652,-0.15,-0.65,9.42,27.44
6670,-0.14,-0.63,9.42,27.46
6685,-0.14,-0.64,9.45,27.56
6703,-0.13,-0.63,9.45,27.44
6720,-0.15,-0.63,9.43,27.55
6736,-0.14,-0.65,9.43,27.55
6753,-0.14,-0.63,9.44,27.46
6770,-0.14,-0.63,9.41,27.55
6787,-0.15,-0.64,9.43,27.44
6803,-0.14,-0.63,9.46,27.56
6821,-0.12,-0.61,9.40,27.56
6837,-0.16,-0.62,9.44,27.46
6853,-0.16,-0.63,9.44,27.55
6872,-0.14,-0.62,9.41,27.46
6887,-0.14,-0.62,9.43,27.46
6904,-0.14,-0.63,9.43,27.56
6922,-0.14,-0.63,9.45,27.46
6937,-0.15,-0.65,9.43,27.44
6955,-0.15,-0.62,9.47,27.44
6972,-0.14,-0.63,9.47,27.44
6987,-0.14,-0.63,9.44,27.46
7005,-0.15,-0.65,9.44,27.46
7022,-0.15,-0.63,9.43,27.44
7037,-0.14,-0.62,9.45,27.56
7055,-0.15,-0.65,9.44,27.46
7072,-0.13,-0.62,9.42,27.46
7088,-0.14,-0.63,9.43,27.56
7105,-0.13,-0.61,9.44,27.44
7122,-0.16,-0.64,9.43,27.56
7138,-0.14,-0.63,9.42,27.56
7155,-0.13,-0.62,9.46,27.46
7173,-0.15,-0.63,9.41,27.56
7189,-0.14,-0.62,9.42,27.56
7205,-0.14,-0.63,9.43,27.55
7224,-0.14,-0.64,9.41,27.56
7239,-0.13,-0.61,9.42,27.46
7256,-0.15,-0.64,9.45,27.55
7274,-0.15,-0.60,9.42,27.46
7289,-0.13,-0.62,9.44,27.46
7307,-0.14,-0.64,9.44,27.56
7324,-0.15,-0.62,9.42,27.44
7340,-0.14,-0.62,9.44,27.44
7357,-0.15,-0.65,9.42,27.46
7374,-0.17,-0.63,9.41,27.46
7390,-0.17,-0.62,9.43,27.46
7407,-0.12,-0.63,9.44,27.44
7425,-0.14,-0.66,9.43,27.44
7440,-0.15,-0.63,9.45,27.56
7457,-0.16,-0.65,9.45,27.44
7475,-0.13,-0.62,9.42,27.56
7491,-0.14,-0.62,9.43,27.55
7507,-0.13,-0.63,9.46,27.46
7525,-0.14,-0.62,9.43,27.56
7541,-0.15,-0.63,9.41,27.55
7558,-0.13,-0.63,9.45,27.44
7575,-0.14,-0.63,9.42,27.55
7591,-0.14,-0.65,9.43,27.44
7608,-0.13,-0.63,9.46,27.56
7626,-0.14,-0.62,9.43,27.56
7642,-0.15,-0.64,9.47,27.46
7658,-0.13,-0.63,9.45,27.56
7676,-0.17,-0.64,9.41,27.46
7692,-0.13,-0.63,9.44,27.44
7709,-0.14,-0.65,9.42,27.56
7727,-0.16,-0.66,9.41,27.44
7742,-0.13,-0.62,9.46,27.44
7759,-0.14,-0.64,9.42,27.46
7777,-0.14,-0.64,9.42,27.46
7792,-0.17,-0.62,9.43,27.55
7810,-0.14,-0.62,9.44,27.44
7827,-0.14,-0.63,9.43,27.46
7842,-0.15,-0.63,9.45,27.55
7860,-0.15,-0.63,9.45,27.46
7877,-0.15,-0.65,9.40,27.56
7892,-0.14,-0.63,9.42,27.56
7910,-0.14,-0.62,9.45,27.44
7927,-0.14,-0.61,9.40,27.56
7944,-0.12,-0.63,9.43,27.55
7960,-0.13,-0.63,9.42,27.46
7977,-0.15,-0.60,9.40,27.56
7994,-0.15,-0.62,9.44,27.56
8010,-0.14,-0.61,9.42,27.55
8028,-0.15,-0.61,9.42,27.56
8044,-0.13,-0.60,9.44,27.44
8060,-0.13,-0.63,9.47,27.55
8079,-0.14,-0.62,9.41,27.55
8094,-0.16,-0.65,9.44,27.46
8111,-0.13,-0.62,9.42,27.56
8129,-0.13,-0.63,9.41,27.44
8144,-0.14,-0.62,9.42,27.44
8162,-0.16,-0.65,9.44,27.55
8179,-0.16,-0.64,9.45,27.44
8195,-0.14,-0.63,9.45,27.44
8212,-0.14,-0.64,9.40,27.46
8229,-0.16,-0.63,9.40,27.46
8245,-0.15,-0.64,9.43,27.56
8262,-0.14,-0.63,9.43,27.44
8280,-0.14,-0.62,9.42,27.56
8295,-0.15,-0.63,9.44,27.55
8312,-0.16,-0.64,9.44,27.46
8330,-0.16,-0.63,9.43,27.56
8346,-0.14,-0.64,9.45,27.56
8363,-0.13,-0.61,9.44,27.48
8381,-0.13,-0.63,9.40,27.56
8396,-0.15,-0.65,9.44,27.46
8413,-0.15,-0.66,9.43,27.56
8431,-0.14,-0.62,9.41,27.55
8446,-0.15,-0.62,9.43,27.44
8463,-0.14,-0.64,9.43,27.56
8481,-0.12,-0.66,9.42,27.46
8497,-0.15,-0.61,9.46,27.44
8514,-0.12,-0.62,9.43,27.56
8531,-0.13,-0.62,9.41,27.44
8547,-0.14,-0.60,9.44,27.44
8564,-0.15,-0.62,9.45,27.55
8582,-0.14,-0.61,9.42,27.46
8597,-0.15,-0.61,9.42,27.46
8614,-0.14,-0.62,9.44,27.46
8632,-0.14,-0.62,9.43,27.46
8647,-0.16,-0.61,9.42,27.56
8665,-0.14,-0.59,9.43,27.46
8682,-0.14,-0.64,9.41,27.46
8697,-0.14,-0.64,9.44,27.55
8715,-0.13,-0.65,9.44,27.46
8732,-0.15,-0.64,9.40,27.46
8748,-0.14,-0.61,9.41,27.56
8765,-0.13,-0.63,9.45,27.46
8782,-0.13,-0.61,9.40,27.56
8799,-0.15,-0.64,9.46,27.56
8815,-0.15,-0.61,9.44,27.46
8833,-0.13,-0.63,9.42,27.56
8849,-0.13,-0.63,9.44,27.46
8865,-0.13,-0.63,9.43,27.56
8883,-0.13,-0.62,9.41,27.56
8899,-0.16,-0.64,9.44,27.46
8915,-0.15,-0.63,9.44,27.56
8934,-0.13,-0.63,9.41,27.56
8949,-0.15,-0.64,9.42,27.46
8967,-0.15,-0.62,9.42,27.56
8984,-0.13,-0.63,9.43,27.46
8999,-0.13,-0.65,9.43,27.46
9017,-0.13,-0.62,9.46,27.46
9034,-0.15,-0.65,9.39,27.44
9050,-0.14,-0.63,9.42,27.56
9067,-0.16,-0.63,9.41,27.46
9084,-0.14,-0.60,9.41,27.46
9100,-0.15,-0.62,9.43,27.55
9117,-0.14,-0.63,9.45,27.46
9135,-0.12,-0.64,9.40,27.56
9150,-0.13,-0.61,9.43,27.56
9167,-0.18,-0.62,9.45,27.46
9185,-0.14,-0.62,9.42,27.56
9201,-0.14,-0.63,9.44,27.46
9218,-0.15,-0.62,9.43,27.49
9235,-0.15,-0.64,9.42,27.56
9251,-0.15,-0.66,9.45,27.46
9268,-0.14,-0.64,9.44,27.56
9286,-0.14,-0.60,9.41,27.56
9302,-0.14,-0.65,9.48,27.46
9318,-0.13,-0.62,9.42,27.56
9336,-0.13,-0.62,9.43,27.46
9352,-0.13,-0.62,9.44,27.46
9369,-0.15,-0.60,9.44,27.56
9387,-0.15,-0.63,9.43,27.46
9402,-0.14,-0.61,9.44,27.46
9419,-0.14,-0.63,9.44,27.46
9437,-0.14,-0.67,9.42,27.46
9452,-0.14,-0.65,9.42,27.56
9469,-0.16,-0.63,9.42,27.46
9487,-0.15,-0.64,9.44,27.44
9502,-0.16,-0.63,9.43,27.56
9520,-0.14,-0.62,9.45,27.46
9537,-0.14,-0.62,9.43,27.55
9552,-0.13,-0.60,9.43,27.56
9570,-0.15,-0.63,9.47,27.44
9587,-0.13,-0.62,9.41,27.56
9604,-0.15,-0.66,9.41,27.56
9620,-0.14,-0.64,9.45,27.46
9637,-0.15,-0.64,9.41,27.56
9654,-0.13,-0.63,9.44,27.46
9670,-0.15,-0.65,9.43,27.56
9689,-0.13,-0.65,9.43,27.56
9704,-0.12,-0.64,9.46,27.46
9720,-0.14,-0.64,9.45,27.56
9739,-0.15,-0.62,9.43,27.46
9754,-0.15,-0.62,9.46,27.46
9772,-0.15,-0.63,9.44,27.55
9789,-0.16,-0.64,9.43,27.46
9804,-0.13,-0.62,9.46,27.46
9822,-0.15,-0.61,9.43,27.46
9839,-0.15,-0.63,9.43,27.46
9854,-0.13,-0.66,9.44,27.56
9872,-0.14,-0.65,9.47,27.46
9889,-0.15,-0.63,9.42,27.44
9905,-0.13,-0.63,9.44,27.56
9922,-0.15,-0.62,9.46,27.44
9939,-0.15,-0.62,9.42,27.56
9955,-0.12,-0.63,9.46,27.56
9972,-0.13,-0.65,9.42,27.46
9990,-0.15,-0.64,9.42,27.56
10006,-0.14,-0.65,9.44,27.56
10022,-0.15,-0.65,9.45,27.56
10041,-0.15,-0.61,9.42,27.56
10056,-0.15,-0.63,9.45,27.46
10073,-0.16,-0.65,9.45,27.56
10091,-0.14,-0.64,9.43,27.46
10106,-0.15,-0.63,9.44,27.44
10124,-0.15,-0.64,9.46,27.56
10141,-0.12,-0.62,9.40,27.46
10157,-0.15,-0.66,9.43,27.44
10174,-0.16,-0.63,9.45,27.55
10191,-0.14,-0.64,9.43,27.44
10207,-0.15,-0.62,9.47,27.56
10224,-0.16,-0.62,9.40,27.46
10242,-0.15,-0.62,9.42,27.44
10257,-0.15,-0.66,9.45,27.56
10274,-0.16,-0.66,9.43,27.46
10292,-0.15,-0.61,9.42,27.56
10308,-0.14,-0.62,9.44,27.55
10324,-0.16,-0.65,9.44,27.46
10342,-0.14,-0.62,9.42,27.55
10358,-0.15,-0.62,9.46,27.44
10375,-0.12,-0.63,9.46,27.44
10393,-0.15,-0.64,9.41,27.55
10408,-0.14,-0.62,9.47,27.46
10425,-0.15,-0.62,9.45,27.56
10443,-0.15,-0.64,9.42,27.56
10459,-0.16,-0.62,9.43,27.46
10475,-0.15,-0.62,9.42,27.56
10493,-0.15,-0.60,9.38,27.46
10509,-0.13,-0.62,9.45,27.46
10526,-0.14,-0.63,9.42,27.56
10544,-0.15,-0.63,9.42,27.46
10559,-0.16,-0.62,9.42,27.46
10576,-0.15,-0.63,9.43,27.56
10594,-0.15,-0.62,9.41,27.44
10609,-0.14,-0.66,9.44,27.56
10627,-0.14,-0.64,9.44,27.46
10644,-0.15,-0.62,9.39,27.46
10659,-0.12,-0.62,9.45,27.55
10677,-0.14,-0.62,9.42,27.46
10694,-0.15,-0.63,9.45,27.46
10710,-0.15,-0.62,9.45,27.56
10727,-0.14,-0.65,9.45,27.44
10744,-0.13,-0.63,9.41,27.56
10761,-0.13,-0.63,9.47,27.56
10777,-0.15,-0.62,9.44,27.46
10795,-0.16,-0.61,9.41,27.55
10811,-0.17,-0.63,9.45,27.44
10827,-0.13,-0.64,9.43,27.56
10846,-0.15,-0.65,9.40,27.56
10861,-0.14,-0.63,9.46,27.44
10877,-0.13,-0.64,9.44,27.56
10896,-0.14,-0.65,9.45,27.46
10911,-0.15,-0.62,9.46,27.44
10929,-0.15,-0.63,9.40,27.56
10946,-0.14,-0.65,9.43,27.46
10961,-0.15,-0.63,9.43,27.44
10979,-0.11,-0.66,9.47,27.55
10996,-0.15,-0.63,9.46,27.46
11012,-0.16,-0.62,9.44,27.55
11029,-0.15,-0.64,9.39,27.46
11046,-0.15,-0.66,9.41,27.46
11062,-0.15,-0.62,9.42,27.55
11079,-0.14,-0.61,9.45,27.44
11097,-0.16,-0.64,9.42,27.55
11113,-0.13,-0.62,9.45,27.56
11129,-0.13,-0.63,9.39,27.46
11147,-0.15,-0.62,9.44,27.55
11163,-0.14,-0.63,9.45,27.44
11180,-0.17,-0.65,9.44,27.53
11198,-0.14,-0.64,9.43,27.56
11213,-0.14,-0.66,9.43,27.44
11230,-0.16,-0.64,9.43,27.56
11248,-0.15,-0.64,9.43,27.56
11264,-0.15,-0.64,9.40,27.44
11280,-0.15,-0.63,9.42,27.56
11298,-0.14,-0.61,9.41,27.46
11314,-0.15,-0.65,9.46,27.44
11331,-0.15,-0.60,9.44,27.55
11348,-0.15,-0.62,9.43,27.46
11364,-0.15,-0.63,9.41,27.46
11381,-0.15,-0.64,9.44,27.46
11399,-0.14,-0.64,9.39,27.46
11414,-0.15,-0.63,9.43,27.56
11431,-0.13,-0.63,9.48,27.46
11449,-0.14,-0.64,9.44,27.46
11464,-0.15,-0.65,9.44,27.55
11482,-0.16,-0.64,9.44,27.46
11499,-0.16,-0.63,9.45,27.56
11515,-0.14,-0.64,9.46,27.55
11532,-0.14,-0.63,9.44,27.46
11549,-0.13,-0.64,9.44,27.56
11566,-0.15,-0.62,9.43,27.44
11582,-0.13,-0.62,9.44,27.55
11600,-0.16,-0.65,9.41,27.56
11616,-0.16,-0.63,9.44,27.46
11632,-0.13,-0.62,9.44,27.56
11651,-0.15,-0.64,9.44,27.56
11666,-0.15,-0.61,9.44,27.46
11682,-0.14,-0.63,9.45,27.56
11701,-0.14,-0.63,9.42,27.44
11716,-0.13,-0.65,9.45,27.46
11734,-0.14,-0.63,9.44,27.56
11751,-0.13,-0.64,9.40,27.46
11766,-0.14,-0.63,9.44,27.46
11784,-0.14,-0.60,9.40,27.56
11801,-0.14,-0.64,9.42,27.46
11816,-0.14,-0.63,9.43,27.46
11834,-0.14,-0.63,9.44,27.44
11851,-0.14,-0.62,9.42,27.46
11867,-0.14,-0.62,9.43,27.56
11884,-0.15,-0.62,9.42,27.46
11901,-0.15,-0.62,9.44,27.46
11917,-0.15,-0.64,9.42,27.56
11934,-0.15,-0.63,9.45,27.44
11952,-0.14,-0.62,9.44,27.56
11968,-0.13,-0.62,9.43,27.56
11984,-0.13,-0.64,9.45,27.46
12002,-0.16,-0.66,9.41,27.56
12018,-0.16,-0.64,9.44,27.56
12035,-0.13,-0.63,9.44,27.56
12053,-0.16,-0.65,9.40,27.55
12068,-0.16,-0.62,9.42,27.46
12085,-0.15,-0.62,9.46,27.56
12103,-0.13,-0.63,9.40,27.46
12119,-0.18,-0.61,9.41,27.44
12136,-0.15,-0.67,9.46,27.56
12153,-0.15,-0.65,9.43,27.46
12169,-0.16,-0.63,9.46,27.46
12186,-0.15,-0.62,9.45,27.46
12204,-0.13,-0.62,9.42,27.44
12219,-0.15,-0.63,9.43,27.56
12236,-0.14,-0.63,9.41,27.46
12254,-0.11,-0.62,9.42,27.46
12269,-0.15,-0.64,9.43,27.56
12286,-0.14,-0.64,9.44,27.44
12304,-0.13,-0.65,9.42,27.56
12320,-0.14,-0.64,9.43,27.56
12337,-0.15,-0.62,9.45,27.46
12354,-0.15,-0.62,9.44,27.56
12370,-0.15,-0.64,9.45,27.56
12387,-0.14,-0.66,9.44,27.44
12404,-0.14,-0.63,9.41,27.56
12421,-0.13,-0.63,9.43,27.44
12437,-0.16,-0.65,9.46,27.56
12455,-0.16,-0.65,9.43,27.56
12471,-0.13,-0.62,9.41,27.46
12487,-0.12,-0.64,9.44,27.56
12506,-0.15,-0.64,9.41,27.44
12521,-0.13,-0.63,9.43,27.46
12538,-0.14,-0.64,9.43,27.56
12556,-0.14,-0.62,9.41,27.46
12571,-0.14,-0.64,9.44,27.44
12589,-0.13,-0.64,9.41,27.44
12606,-0.15,-0.66,9.41,27.46
12621,-0.14,-0.65,9.45,27.56
12639,-0.15,-0.63,9.42,27.44
12656,-0.15,-0.63,9.41,27.46
12672,-0.16,-0.62,9.44,27.55
12689,-0.15,-0.65,9.42,27.44
12706,-0.15,-0.62,9.44,27.56
12722,-0.12,-0.64,9.42,27.56
12739,-0.15,-0.65,9.46,27.46
12756,-0.14,-0.63,9.41,27.56
12773,-0.15,-0.62,9.45,27.44
12789,-0.15,-0.63,9.41,27.46
12807,-0.15,-0.62,9.43,27.56
12823,-0.14,-0.64,9.41,27.46
12839,-0.13,-0.62,9.42,27.56
12858,-0.13,-0.62,9.41,27.56
12873,-0.14,-0.61,9.43,27.44
12890,-0.14,-0.65,9.44,27.56
12908,-0.13,-0.63,9.43,27.46
12923,-0.12,-0.65,9.46,27.46
12941,-0.14,-0.62,9.44,27.56
12958,-0.13,-0.65,9.43,27.46
12974,-0.13,-0.63,9.45,27.46
12991,-0.15,-0.64,9.45,27.46
13008,-0.15,-0.62,9.44,27.46
13024,-0.14,-0.61,9.45,27.56
13041,-0.15,-0.64,9.43,27.46
13059,-0.14,-0.63,9.43,27.44
13074,-0.13,-0.64,9.44,27.56
13091,-0.13,-0.62,9.44,27.46
13109,-0.15,-0.63,9.43,27.53
13124,-0.15,-0.64,9.44,27.55
13142,-0.13,-0.63,9.42,27.46
13159,-0.13,-0.61,9.43,27.56
13175,-0.16,-0.63,9.44,27.56
13192,-0.14,-0.65,9.43,27.44
13209,-0.16,-0.63,9.41,27.56
13225,-0.13,-0.64,9.42,27.51
13242,-0.14,-0.63,9.45,27.46
13260,-0.14,-0.64,9.43,27.55
13276,-0.14,-0.64,9.44,27.46
13292,-0.14,-0.65,9.42,27.56
13310,-0.15,-0.62,9.44,27.55
13326,-0.13,-0.64,9.46,27.44
13343,-0.14,-0.64,9.45,27.56
13361,-0.15,-0.63,9.41,27.46
13376,-0.14,-0.66,9.45,27.46
13393,-0.14,-0.61,9.47,27.46
13411,-0.14,-0.62,9.44,27.44
13426,-0.15,-0.63,9.44,27.56
13444,-0.15,-0.63,9.42,27.46
13461,-0.13,-0.61,9.42,27.44
13476,-0.14,-0.64,9.43,27.56
13494,-0.14,-0.62,9.44,27.46
13511,-0.14,-0.60,9.40,27.56
13528,-0.13,-0.62,9.43,27.56
13544,-0.16,-0.62,9.43,27.46
13561,-0.13,-0.63,9.42,27.56
13578,-0.14,-0.62,9.44,27.56
13594,-0.13,-0.64,9.44,27.46
13612,-0.13,-0.63,9.40,27.56
13628,-0.14,-0.66,9.40,27.44
13644,-0.15,-0.61,9.44,27.48
13662,-0.14,-0.63,9.44,27.56
13678,-0.12,-0.60,9.46,27.46
13694,-0.15,-0.64,9.45,27.55
13713,-0.16,-0.62,9.41,27.44
13728,-0.12,-0.60,9.43,27.46
13746,-0.15,-0.63,9.44,27.56
13763,-0.14,-0.63,9.43,27.44
13778,-0.15,-0.63,9.43,27.46
13796,-0.14,-0.64,9.43,27.55
13813,-0.15,-0.63,9.39,27.46
13829,-0.16,-0.64,9.41,27.46
13846,-0.15,-0.63,9.45,27.46
13863,-0.13,-0.62,9.43,27.46
13879,-0.15,-0.61,9.42,27.56
13896,-0.14,-0.65,9.44,27.46
13914,-0.15,-0.63,9.44,27.46
13929,-0.14,-0.63,9.44,27.56
13946,-0.13,-0.64,9.45,27.46
13964,-0.15,-0.63,9.44,27.56
13980,-0.13,-0.61,9.43,27.56
13997,-0.14,-0.65,9.43,27.44
14014,-0.15,-0.64,9.40,27.56
14030,-0.12,-0.64,9.46,27.46
14047,-0.14,-0.62,9.42,27.56
14065,-0.14,-0.65,9.43,27.56
14081,-0.14,-0.62,9.43,27.44
14097,-0.15,-0.64,9.39,27.55
14115,-0.17,-0.62,9.40,27.56
14131,-0.13,-0.64,9.44,27.46
14147,-0.14,-0.62,9.42,27.56
14166,-0.15,-0.62,9.40,27.46
14181,-0.14,-0.61,9.46,27.46
14198,-0.15,-0.63,9.45,27.56
14216,-0.14,-0.63,9.43,27.46
14231,-0.15,-0.64,9.46,27.46
14248,-0.14,-0.64,9.42,27.46
14266,-0.14,-0.62,9.44,27.46
14281,-0.15,-0.64,9.43,27.56
14299,-0.14,-0.65,9.43,27.46
14316,-0.15,-0.63,9.42,27.46
14331,-0.13,-0.63,9.47,27.56
14349,-0.14,-0.62,9.44,27.46
14366,-0.14,-0.64,9.42,27.56
14382,-0.14,-0.62,9.46,27.55
14399,-0.14,-0.64,9.46,27.46
14416,-0.12,-0.63,9.39,27.56
14433,-0.14,-0.62,9.46,27.46
14449,-0.12,-0.63,9.44,27.56
14468,-0.15,-0.62,9.47,27.56
14483,-0.14,-0.65,9.45,27.46
14499,-0.15,-0.65,9.43,27.56
14518,-0.14,-0.64,9.42,27.46
14533,-0.15,-0.65,9.42,27.46
14551,-0.14,-0.63,9.47,27.56
14568,-0.14,-0.61,9.40,27.46
14583,-0.14,-0.63,9.44,27.46
14601,-0.13,-0.62,9.45,27.53
14618,-0.14,-0.62,9.43,27.46
14633,-0.18,-0.63,9.44,27.44
14651,-0.13,-0.60,9.42,27.46
14668,-0.14,-0.64,9.45,27.46
14684,-0.15,-0.64,9.44,27.56
14701,-0.13,-0.63,9.45,27.46
14718,-0.14,-0.64,9.42,27.56
14734,-0.12,-0.60,9.45,27.56
14751,-0.13,-0.63,9.44,27.46
14769,-0.15,-0.62,9.39,27.56
14785,-0.15,-0.62,9.46,27.56
14801,-0.14,-0.64,9.45,27.46
14819,-0.14,-0.64,9.45,27.56
14835,-0.13,-0.64,9.45,27.46
14852,-0.13,-0.62,9.46,27.56
14870,-0.14,-0.63,9.43,27.56
14885,-0.14,-0.64,9.44,27.46
14902,-0.13,-0.63,9.44,27.56
14920,-0.14,-0.63,9.45,27.46
14936,-0.14,-0.65,9.43,27.46
14952,-0.15,-0.64,9.45,27.56
14970,-0.13,-0.64,9.43,27.46
14986,-0.15,-0.64,9.42,27.46
15003,-0.13,-0.62,9.45,27.56
15021,-0.14,-0.63,9.39,27.46
15036,-0.15,-0.61,9.43,27.46
15053,-0.15,-0.65,9.43,27.46
15071,-0.15,-0.62,9.43,27.46
15086,-0.13,-0.61,9.47,27.56
15104,-0.15,-0.63,9.45,27.44
15121,-0.16,-0.60,9.39,27.46
15136,-0.13,-0.65,9.42,27.56
15154,-0.15,-0.62,9.41,27.46
15171,-0.14,-0.63,9.42,27.56
15187,-0.15,-0.62,9.44,27.56
15204,-0.15,-0.62,9.43,27.46
15221,-0.14,-0.65,9.44,27.56
15238,-0.13,-0.61,9.45,27.56
15254,-0.14,-0.64,9.42,27.49
15271,-0.14,-0.66,9.43,27.56
15288,-0.14,-0.64,9.46,27.46
15304,-0.13,-0.67,9.45,27.56
15323,-0.14,-0.63,9.46,27.56
15338,-0.14,-0.63,9.43,27.46
15354,-0.16,-0.66,9.44,27.56
15373,-0.14,-0.65,9.43,27.46
15388,-0.15,-0.62,9.43,27.46
15406,-0.14,-0.63,9.44,27.49
15423,-0.13,-0.63,9.43,27.46
15438,-0.15,-0.65,9.43,27.56
15456,-0.15,-0.62,9.45,27.46
15473,-0.14,-0.62,9.44,27.46
15489,-0.14,-0.64,9.44,27.56
15506,-0.14,-0.62,9.45,27.46
15523,-0.13,-0.60,9.41,27.55
15539,-0.14,-0.63,9.47,27.56
15556,-0.15,-0.62,9.45,27.44
15574,-0.13,-0.66,9.41,27.56
15590,-0.16,-0.65,9.46,27.56
15606,-0.13,-0.61,9.43,27.46
15624,-0.13,-0.61,9.44,27.56
15640,-0.13,-0.64,9.44,27.46
15656,-0.15,-0.65,9.44,27.56
15675,-0.15,-0.63,9.44,27.56
15690,-0.13,-0.64,9.45,27.46
15707,-0.14,-0.62,9.42,27.56
15725,-0.14,-0.63,9.41,27.46
15740,-0.14,-0.62,9.43,27.44
15757,-0.15,-0.64,9.47,27.56
15775,-0.15,-0.63,9.42,27.46
15791,-0.14,-0.62,9.46,27.46
15808,-0.12,-0.62,9.44,27.56
15825,-0.14,-0.62,9.42,27.46
15841,-0.14,-0.63,9.43,27.46
15858,-0.15,-0.64,9.42,27.46
15876,-0.14,-0.64,9.44,27.46
15891,-0.17,-0.65,9.43,27.56
15908,-0.15,-0.64,9.45,27.46
15926,-0.14,-0.64,9.41,27.46
15941,-0.14,-0.63,9.45,27.56
15959,-0.14,-0.63,9.41,27.46
15976,-0.13,-0.62,9.44,27.56
15992,-0.13,-0.64,9.45,27.56
16009,-0.14,-0.61,9.43,27.46
16026,-0.13,-0.63,9.42,27.56
16043,-0.13,-0.66,9.43,27.44
16059,-0.17,-0.62,9.45,27.56
16077,-0.12,-0.65,9.42,27.56
16093,-0.13,-0.62,9.45,27.46
16109,-0.15,-0.62,9.44,27.56
16128,-0.13,-0.65,9.43,27.44
16143,-0.14,-0.65,9.43,27.46
16160,-0.15,-0.63,9.48,27.56
16178,-0.16,-0.61,9.43,27.44
16193,-0.13,-0.64,9.43,27.46
16210,-0.15,-0.63,9.43,27.46
16228,-0.14,-0.64,9.41,27.46
16243,-0.15,-0.63,9.43,27.44
16261,-0.15,-0.64,9.43,27.46
16278,-0.16,-0.63,9.43,27.46
16293,-0.13,-0.60,9.44,27.56
16311,-0.15,-0.63,9.45,27.44
16328,-0.15,-0.62,9.43,27.56
16344,-0.16,-0.62,9.43,27.56
16361,-0.14,-0.62,9.43,27.46
16378,-0.13,-0.64,9.43,27.56
16395,-0.14,-0.63,9.42,27.56
16411,-0.15,-0.65,9.46,27.46
16429,-0.14,-0.63,9.43,27.56
16445,-0.14,-0.62,9.43,27.46
16461,-0.16,-0.63,9.44,27.56
16480,-0.14,-0.65,9.42,27.56
16495,-0.14,-0.61,9.44,27.46
16512,-0.15,-0.64,9.44,27.56
16530,-0.14,-0.64,9.41,27.46
16545,-0.13,-0.63,9.45,27.46
16563,-0.15,-0.62,9.43,27.56
16580,-0.16,-0.63,9.44,27.46
16595,-0.14,-0.61,9.43,27.46
16613,-0.13,-0.64,9.48,27.44
16630,-0.15,-0.63,9.44,27.46
16646,-0.14,-0.65,9.43,27.44
16663,-0.14,-0.63,9.40,27.46
16680,-0.15,-0.62,9.43,27.46
16696,-0.13,-0.61,9.46,27.56
16713,-0.13,-0.62,9.44,27.46
16731,-0.14,-0.61,9.43,27.46
16746,-0.15,-0.63,9.44,27.56
16763,-0.15,-0.64,9.43,27.44
16781,-0.15,-0.63,9.40,27.56
16797,-0.15,-0.63,9.44,27.56
16814,-0.16,-0.63,9.44,27.46
16832,-0.14,-0.62,9.42,27.56
16847,-0.16,-0.63,9.45,27.46
16864,-0.13,-0.64,9.43,27.56
16882,-0.13,-0.65,9.39,27.56
16898,-0.12,-0.64,9.45,27.46
16914,-0.15,-0.64,9.43,27.55
16932,-0.14,-0.65,9.42,27.46
16948,-0.16,-0.63,9.44,27.46
16965,-0.12,-0.61,9.46,27.55
16983,-0.15,-0.61,9.41,27.44
16998,-0.15,-0.63,9.43,27.44
17015,-0.15,-0.66,9.46,27.46
17033,-0.14,-0.63,9.43,27.44
17048,-0.14,-0.64,9.42,27.44
17065,-0.15,-0.64,9.44,27.44
17083,-0.14,-0.65,9.39,27.46
17098,-0.14,-0.62,9.45,27.55
17116,-0.14,-0.65,9.45,27.46
17133,-0.13,-0.61,9.44,27.46
17148,-0.13,-0.63,9.42,27.55
17166,-0.14,-0.66,9.42,27.44
17183,-0.15,-0.61,9.41,27.56
17200,-0.14,-0.63,9.45,27.56
17216,-0.15,-0.62,9.45,27.46
17233,-0.14,-0.63,9.43,27.56
17250,-0.14,-0.63,9.42,27.46
17266,-0.14,-0.64,9.43,27.56
17285,-0.14,-0.62,9.42,27.56
17300,-0.15,-0.62,9.44,27.46
17316,-0.13,-0.64,9.44,27.56
17335,-0.16,-0.63,9.43,27.44
17350,-0.12,-0.64,9.44,27.46
17368,-0.15,-0.61,9.42,27.55
17385,-0.15,-0.63,9.41,27.44
17400,-0.14,-0.62,9.46,27.44
17418,-0.15,-0.62,9.43,27.46
17435,-0.14,-0.64,9.42,27.46
17451,-0.15,-0.64,9.42,27.55
17468,-0.14,-0.65,9.43,27.46
17485,-0.15,-0.62,9.40,27.46
17501,-0.14,-0.65,9.43,27.56
17518,-0.13,-0.63,9.43,27.44
17536,-0.14,-0.65,9.41,27.55
17551,-0.15,-0.64,9.41,27.56
17568,-0.16,-0.65,9.43,27.46
17586,-0.14,-0.65,9.39,27.56
17602,-0.13,-0.62,9.46,27.56
17618,-0.14,-0.63,9.42,27.46
17636,-0.14,-0.64,9.42,27.56
17652,-0.16,-0.64,9.42,27.44
17669,-0.16,-0.63,9.42,27.56
17687,-0.14,-0.62,9.43,27.56
17702,-0.14,-0.63,9.45,27.46
17719,-0.15,-0.63,9.44,27.56
17737,-0.14,-0.63,9.44,27.46
17753,-0.13,-0.61,9.46,27.44
17770,-0.13,-0.64,9.43,27.56
17787,-0.14,-0.66,9.44,27.44
17803,-0.15,-0.65,9.45,27.44
17820,-0.14,-0.64,9.46,27.46
17838,-0.15,-0.62,9.42,27.46
17853,-0.15,-0.63,9.44,27.55
17870,-0.13,-0.66,9.41,27.46
17888,-0.14,-0.64,9.43,27.44
17903,-0.15,-0.63,9.44,27.56
17921,-0.14,-0.62,9.46,27.44
17938,-0.14,-0.63,9.43,27.46
17953,-0.15,-0.63,9.43,27.56
17971,-0.14,-0.63,9.43,27.46
17988,-0.14,-0.64,9.44,27.56
18003,-0.14,-0.64,9.42,27.55
18021,-0.14,-0.63,9.43,27.46
18038,-0.14,-0.64,9.40,27.56
18055,-0.15,-0.63,9.44,27.44
18071,-0.14,-0.66,9.42,27.56
18089,-0.14,-0.63,9.44,27.56
18105,-0.16,-0.62,9.45,27.46
18121,-0.14,-0.63,9.40,27.56
18140,-0.17,-0.63,9.42,27.46
18155,-0.14,-0.63,9.44,27.44
18171,-0.15,-0.66,9.42,27.56
18190,-0.16,-0.67,9.40,27.44
18205,-0.13,-0.63,9.43,27.46
18223,-0.11,-0.63,9.43,27.56
18240,-0.14,-0.63,9.44,27.46
18255,-0.16,-0.62,9.44,27.44
18273,-0.15,-0.64,9.45,27.46
18290,-0.14,-0.63,9.45,27.46
18306,-0.12,-0.63,9.46,27.56
18323,-0.15,-0.63,9.43,27.46
18340,-0.13,-0.66,9.40,27.46
18356,-0.16,-0.63,9.44,27.56
18373,-0.14,-0.66,9.43,27.46
18391,-0.15,-0.64,9.42,27.46
18406,-0.14,-0.63,9.44,27.56
18423,-0.16,-0.64,9.47,27.44
18441,-0.15,-0.62,9.38,27.56
18457,-0.14,-0.64,9.44,27.44
18473,-0.13,-0.64,9.43,27.46
18492,-0.14,-0.64,9.44,27.56
18507,-0.13,-0.62,9.45,27.44
18524,-0.12,-0.62,9.46,27.56
18542,-0.14,-0.63,9.42,27.44
18557,-0.14,-0.65,9.47,27.46
18574,-0.12,-0.65,9.45,27.55
18592,-0.14,-0.62,9.42,27.46
18608,-0.14,-0.63,9.45,27.46
18625,-0.16,-0.64,9.49,27.56
18642,-0.16,-0.66,9.42,27.44
18658,-0.15,-0.63,9.45,27.46
18675,-0.13,-0.63,9.45,27.46
18693,-0.12,-0.64,9.40,27.46
18708,-0.14,-0.61,9.41,27.56
18725,-0.13,-0.62,9.42,27.46
18743,-0.16,-0.63,9.41,27.44
18758,-0.15,-0.63,9.45,27.56
18776,-0.14,-0.64,9.44,27.44
18793,-0.14,-0.61,9.44,27.46
18808,-0.15,-0.61,9.43,27.56
18826,-0.14,-0.60,9.42,27.44
18843,-0.15,-0.62,9.44,27.56
18860,-0.15,-0.63,9.43,27.55
18876,-0.15,-0.64,9.43,27.46
18893,-0.14,-0.63,9.42,27.56
18910,-0.13,-0.61,9.44,27.46
18926,-0.15,-0.63,9.41,27.56
18945,-0.14,-0.62,9.46,27.56
18960,-0.13,-0.63,9.44,27.46
18976,-0.15,-0.63,9.42,27.56
18995,-0.16,-0.63,9.41,27.46
19010,-0.13,-0.63,9.42,27.46
19027,-0.13,-0.62,9.44,27.56
19045,-0.15,-0.62,9.42,27.46
19060,-0.14,-0.64,9.44,27.46
19078,-0.16,-0.64,9.41,27.46
19095,-0.14,-0.62,9.39,27.46
19110,-0.15,-0.66,9.43,27.56
19128,-0.14,-0.61,9.45,27.46
19145,-0.14,-0.63,9.39,27.44
19161,-0.14,-0.64,9.42,27.56
19178,-0.13,-0.65,9.43,27.46
19195,-0.15,-0.64,9.43,27.44
19211,-0.15,-0.65,9.41,27.56
19228,-0.16,-0.63,9.43,27.44
19246,-0.16,-0.63,9.42,27.56
19262,-0.12,-0.64,9.46,27.56
19278,-0.16,-0.64,9.42,27.46
19296,-0.12,-0.63,9.42,27.55
19312,-0.15,-0.63,9.46,27.46
19329,-0.15,-0.63,9.44,27.56
19347,-0.13,-0.65,9.41,27.56
19362,-0.14,-0.64,9.43,27.46
19379,-0.14,-0.63,9.44,27.55
19397,-0.13,-0.61,9.41,27.46
19412,-0.15,-0.62,9.44,27.46
19430,-0.14,-0.62,9.43,27.56
19447,-0.14,-0.62,9.42,27.46
19463,-0.14,-0.63,9.42,27.46
19480,-0.12,-0.61,9.45,27.46
19497,-0.16,-0.64,9.46,27.46
19513,-0.16,-0.61,9.47,27.56
19530,-0.14,-0.63,9.45,27.46
19548,-0.13,-0.60,9.42,27.46
19563,-0.14,-0.64,9.44,27.56
19580,-0.12,-0.62,9.43,27.46
19598,-0.14,-0.63,9.41,27.56
19614,-0.15,-0.61,9.43,27.56
19631,-0.14,-0.63,9.43,27.46
19648,-0.14,-0.61,9.42,27.56
19664,-0.15,-0.63,9.42,27.46
19681,-0.16,-0.64,9.42,27.46
19699,-0.11,-0.61,9.42,27.56
19715,-0.14,-0.62,9.45,27.44
19731,-0.13,-0.63,9.45,27.56
19749,-0.16,-0.61,9.41,27.56
19765,-0.14,-0.62,9.44,27.44
19781,-0.13,-0.62,9.45,27.56
19800,-0.13,-0.64,9.45,27.44
19815,-0.14,-0.64,9.42,27.46
19832,-0.13,-0.63,9.46,27.55
19850,-0.14,-0.61,9.44,27.46
19865,-0.15,-0.61,9.45,27.46
19883,-0.15,-0.62,9.43,27.48
19900,-0.13,-0.62,9.42,27.46
19915,-0.15,-0.65,9.42,27.56
19933,-0.14,-0.65,9.44,27.44
19950,-0.16,-0.64,9.41,27.46
19965,-0.14,-0.61,9.44,27.56
19983,-0.14,-0.63,9.45,27.46
20000,-0.15,-0.63,9.43,27.56
20017,-0.16,-0.62,9.45,27.56
20033,-0.14,-0.62,9.40,27.44
20050,-0.16,-0.63,9.42,27.56
20067,-0.15,-0.64,9.47,27.46
20083,-0.14,-0.62,9.44,27.46
20101,-0.14,-0.63,9.39,27.56
20117,-0.14,-0.64,9.45,27.46
20133,-0.15,-0.63,9.44,27.55
20152,-0.14,-0.66,9.40,27.56
20167,-0.14,-0.63,9.44,27.44
20184,-0.12,-0.64,9.47,27.56
20202,-0.13,-0.62,9.38,27.44
20217,-0.13,-0.63,9.46,27.46
20235,-0.13,-0.62,9.44,27.56
20252,-0.14,-0.62,9.42,27.46
20268,-0.15,-0.61,9.40,27.44
20285,-0.13,-0.61,9.43,27.46
20302,-0.15,-0.63,9.45,27.46
20318,-0.13,-0.63,9.43,27.56
20335,-0.15,-0.63,9.45,27.46
20353,-0.14,-0.62,9.43,27.46
20368,-0.12,-0.64,9.44,27.56
20385,-0.14,-0.63,9.43,27.46
20403,-0.13,-0.63,9.43,27.56
20419,-0.14,-0.67,9.42,27.56
20435,-0.14,-0.64,9.44,27.46
20453,-0.15,-0.62,9.46,27.56
20469,-0.14,-0.61,9.43,27.46
20486,-0.13,-0.62,9.44,27.46
20503,-0.15,-0.62,9.43,27.56
20519,-0.14,-0.62,9.45,27.46
20536,-0.13,-0.62,9.42,27.56
20554,-0.13,-0.66,9.41,27.56
20570,-0.12,-0.64,9.45,27.46
20586,-0.12,-0.61,9.44,27.56
20604,-0.12,-0.64,9.43,27.46
20620,-0.15,-0.62,9.40,27.46
20637,-0.13,-0.64,9.42,27.56
20655,-0.14,-0.65,9.43,27.46
20670,-0.16,-0.64,9.43,27.46
20687,-0.13,-0.64,9.42,27.46
20705,-0.15,-0.61,9.43,27.46
20720,-0.17,-0.64,9.43,27.56
20738,-0.13,-0.62,9.45,27.46
20755,-0.17,-0.64,9.38,27.46
20770,-0.15,-0.64,9.46,27.56
20788,-0.15,-0.64,9.40,27.46
20805,-0.16,-0.64,9.39,27.56
20822,-0.14,-0.62,9.44,27.56
20838,-0.15,-0.64,9.45,27.46
20855,-0.15,-0.64,9.41,27.56
20872,-0.13,-0.62,9.46,27.46
20888,-0.14,-0.63,9.44,27.55
20905,-0.16,-0.62,9.42,27.56
20922,-0.16,-0.64,9.43,27.46
20938,-0.13,-0.64,9.41,27.56
20957,-0.14,-0.61,9.45,27.46
20972,-0.13,-0.63,9.40,27.46
20988,-0.14,-0.65,9.43,27.56
21007,-0.14,-0.64,9.43,27.44
21022,-0.14,-0.66,9.44,27.44
21040,-0.15,-0.63,9.44,27.56
21057,-0.15,-0.62,9.42,27.46
21072,-0.15,-0.63,9.42,27.46
21090,-0.14,-0.65,9.46,27.56
21107,-0.14,-0.64,9.42,27.46
21123,-0.14,-0.64,9.45,27.46
21140,-0.12,-0.65,9.44,27.46
21157,-0.15,-0.62,9.41,27.46
21173,-0.15,-0.62,9.44,27.56
21190,-0.15,-0.63,9.45,27.46
21208,-0.14,-0.65,9.44,27.55
21224,-0.13,-0.63,9.41,27.56
21240,-0.15,-0.62,9.43,27.44
21258,-0.14,-0.64,9.42,27.56
21274,-0.15,-0.63,9.42,27.46
21291,-0.13,-0.64,9.44,27.46
21309,-0.14,-0.63,9.41,27.56
21324,-0.14,-0.60,9.43,27.46
21341,-0.14,-0.64,9.42,27.55
21359,-0.14,-0.66,9.42,27.56
21374,-0.13,-0.63,9.44,27.44
21391,-0.15,-0.63,9.41,27.56
21409,-0.14,-0.61,9.40,27.46
21425,-0.14,-0.65,9.43,27.46
21442,-0.14,-0.66,9.45,27.56
21459,-0.14,-0.61,9.43,27.46
21475,-0.14,-0.64,9.41,27.46
21492,-0.13,-0.62,9.44,27.46
21510,-0.15,-0.63,9.43,27.46
21525,-0.14,-0.61,9.46,27.56
21542,-0.16,-0.63,9.43,27.44
21560,-0.15,-0.64,9.41,27.44
21575,-0.15,-0.63,9.47,27.55
21593,-0.15,-0.63,9.44,27.46
21610,-0.14,-0.64,9.41,27.46
21625,-0.15,-0.63,9.44,27.55
21643,-0.14,-0.65,9.43,27.46
21660,-0.13,-0.65,9.42,27.56
21677,-0.15,-0.64,9.43,27.56
21693,-0.15,-0.63,9.47,27.44
21710,-0.15,-0.63,9.41,27.56
21727,-0.15,-0.63,9.44,27.44
21743,-0.14,-0.61,9.44,27.55
21762,-0.12,-0.62,9.43,27.55
21777,-0.15,-0.65,9.42,27.44
21793,-0.13,-0.62,9.46,27.56
21812,-0.15,-0.64,9.43,27.46
21827,-0.15,-0.61,9.43,27.46
21844,-0.15,-0.62,9.43,27.55
21862,-0.15,-0.62,9.43,27.44
21877,-0.16,-0.63,9.46,27.44
21895,-0.15,-0.63,9.46,27.55
21912,-0.16,-0.65,9.44,27.44
21927,-0.14,-0.65,9.45,27.44
21945,-0.16,-0.62,9.42,27.46
21962,-0.15,-0.63,9.42,27.44
21978,-0.15,-0.64,9.44,27.56
21995,-0.12,-0.64,9.45,27.46
22012,-0.14,-0.62,9.41,27.56
22028,-0.14,-0.63,9.44,27.55
22045,-0.14,-0.64,9.43,27.44
22063,-0.14,-0.60,9.43,27.55
22079,-0.14,-0.64,9.44,27.55
22095,-0.14,-0.63,9.45,27.46
22113,-0.14,-0.60,9.44,27.56
22129,-0.15,-0.63,9.42,27.44
22146,-0.14,-0.60,9.43,27.56
22164,-0.15,-0.63,9.46,27.56
22179,-0.13,-0.64,9.45,27.44
22196,-0.13,-0.61,9.42,27.55
22214,-0.12,-0.61,9.42,27.44
22230,-0.14,-0.62,9.44,27.44
22247,-0.14,-0.66,9.47,27.56
22264,-0.16,-0.64,9.44,27.44
22280,-0.14,-0.63,9.44,27.44
22297,-0.14,-0.62,9.42,27.55
22315,-0.14,-0.62,9.46,27.44
22330,-0.14,-0.64,9.46,27.55
22347,-0.15,-0.61,9.43,27.44
22365,-0.15,-0.63,9.43,27.46
22380,-0.14,-0.65,9.45,27.56
22397,-0.16,-0.65,9.46,27.44
22415,-0.14,-0.62,9.41,27.56
22430,-0.14,-0.64,9.44,27.56
22448,-0.14,-0.63,9.40,27.44
22465,-0.15,-0.63,9.44,27.55
22481,-0.14,-0.63,9.45,27.56
22498,-0.14,-0.65,9.42,27.46
22515,-0.13,-0.66,9.42,27.56
22532,-0.14,-0.64,9.43,27.46
22548,-0.15,-0.61,9.44,27.56
22566,-0.14,-0.62,9.40,27.55
22582,-0.15,-0.62,9.41,27.44
22598,-0.15,-0.63,9.46,27.55
22617,-0.12,-0.65,9.42,27.46
22632,-0.14,-0.64,9.46,27.44
22649,-0.15,-0.64,9.44,27.55
22667,-0.15,-0.62,9.42,27.46
22682,-0.14,-0.64,9.45,27.46
22700,-0.12,-0.65,9.41,27.55
22717,-0.14,-0.63,9.43,27.46
22732,-0.14,-0.61,9.41,27.56
22750,-0.14,-0.64,9.45,27.44
22767,-0.16,-0.62,9.42,27.46
22782,-0.13,-0.64,9.44,27.56
22800,-0.15,-0.64,9.43,27.44
22817,-0.13,-0.63,9.42,27.44
22833,-0.15,-0.61,9.42,27.56
22850,-0.14,-0.64,9.41,27.46
22867,-0.15,-0.62,9.40,27.56
22884,-0.14,-0.64,9.44,27.56
22900,-0.15,-0.63,9.43,27.44
22918,-0.15,-0.61,9.45,27.55
22934,-0.15,-0.64,9.46,27.44
22950,-0.13,-0.61,9.48,27.56
22969,-0.15,-0.65,9.45,27.55
22984,-0.16,-0.64,9.42,27.46
23001,-0.15,-0.63,9.45,27.56
23019,-0.14,-0.63,9.41,27.46
23034,-0.15,-0.63,9.46,27.46
23052,-0.13,-0.63,9.41,27.56
23069,-0.13,-0.61,9.42,27.46
23085,-0.15,-0.62,9.43,27.44
23102,-0.12,-0.65,9.46,27.55
23119,-0.13,-0.63,9.44,27.44
23135,-0.15,-0.63,9.45,27.55
23152,-0.17,-0.64,9.42,27.46
23170,-0.14,-0.62,9.42,27.46
23185,-0.16,-0.63,9.43,27.55
23202,-0.15,-0.63,9.40,27.44
23220,-0.14,-0.63,9.41,27.46
23235,-0.15,-0.63,9.46,27.55
23252,-0.14,-0.62,9.45,27.44
23270,-0.13,-0.65,9.43,27.56
23286,-0.14,-0.63,9.43,27.55
23303,-0.15,-0.62,9.42,27.46
23320,-0.15,-0.65,9.42,27.55
23336,-0.14,-0.64,9.46,27.46
23353,-0.15,-0.64,9.43,27.56
23371,-0.14,-0.62,9.41,27.56
23387,-0.15,-0.64,9.40,27.44
23403,-0.15,-0.63,9.44,27.55
23421,-0.13,-0.64,9.40,27.46
23437,-0.15,-0.62,9.43,27.46
23454,-0.16,-0.62,9.44,27.56
23472,-0.14,-0.65,9.44,27.44
23487,-0.12,-0.63,9.43,27.44
23504,-0.13,-0.65,9.42,27.46
23522,-0.16,-0.65,9.41,27.46
23537,-0.14,-0.63,9.43,27.56
23555,-0.11,-0.62,9.43,27.46
23572,-0.14,-0.63,9.41,27.46
23587,-0.13,-0.64,9.45,27.56
23605,-0.16,-0.61,9.42,27.46
23622,-0.15,-0.63,9.41,27.44
23638,-0.15,-0.64,9.43,27.55
23655,-0.14,-0.64,9.46,27.46
23672,-0.13,-0.62,9.42,27.56
23689,-0.14,-0.62,9.45,27.55
23705,-0.13,-0.62,9.43,27.46
23723,-0.16,-0.64,9.41,27.56
23739,-0.14,-0.63,9.43,27.46
23755,-0.15,-0.62,9.44,27.56
23774,-0.15,-0.63,9.42,27.55
23789,-0.14,-0.60,9.42,27.44
23805,-0.16,-0.64,9.44,27.55
23824,-0.14,-0.64,9.43,27.46
23839,-0.13,-0.64,9.44,27.46
23857,-0.14,-0.62,9.44,27.55
23874,-0.13,-0.63,9.42,27.46
23889,-0.14,-0.63,9.42,27.44
23907,-0.15,-0.64,9.43,27.44
23924,-0.16,-0.61,9.43,27.44
23940,-0.16,-0.63,9.46,27.55
23957,-0.13,-0.60,9.43,27.44
23974,-0.14,-0.64,9.43,27.46
23990,-0.18,-0.64,9.43,27.56
24007,-0.15,-0.63,9.42,27.46
24025,-0.15,-0.65,9.40,27.56
24040,-0.13,-0.63,9.44,27.56
24057,-0.13,-0.62,9.43,27.46
24075,-0.16,-0.63,9.43,27.56
24091,-0.15,-0.62,9.45,27.56
24108,-0.15,-0.64,9.41,27.44
24125,-0.15,-0.62,9.41,27.55
24141,-0.14,-0.63,9.41,27.46
24158,-0.16,-0.63,9.47,27.56
24175,-0.15,-0.62,9.41,27.56
24192,-0.14,-0.63,9.43,27.44
24208,-0.14,-0.63,9.42,27.56
24226,-0.15,-0.64,9.41,27.46
24242,-0.15,-0.63,9.43,27.46
24259,-0.15,-0.64,9.44,27.56
24276,-0.15,-0.64,9.42,27.46
24292,-0.15,-0.62,9.47,27.46
24309,-0.15,-0.64,9.45,27.44
24327,-0.15,-0.64,9.39,27.46
24342,-0.13,-0.61,9.43,27.46
24359,-0.15,-0.62,9.40,27.44
24377,-0.13,-0.65,9.43,27.46
24392,-0.15,-0.62,9.46,27.56
24410,-0.13,-0.65,9.43,27.46
24427,-0.14,-0.63,9.40,27.44
24442,-0.14,-0.63,9.41,27.56
24460,-0.14,-0.64,9.41,27.46
24477,-0.13,-0.64,9.40,27.56
24494,-0.14,-0.63,9.44,27.56
24510,-0.13,-0.64,9.44,27.46
24527,-0.13,-0.63,9.43,27.56
24544,-0.12,-0.62,9.45,27.46
24560,-0.13,-0.60,9.44,27.56
24579,-0.15,-0.65,9.43,27.56
24594,-0.15,-0.62,9.43,27.44
24610,-0.15,-0.65,9.43,27.56
24629,-0.15,-0.64,9.41,27.46
24644,-0.12,-0.64,9.42,27.46
24660,-0.15,-0.61,9.46,27.56
24679,-0.15,-0.63,9.42,27.46
24694,-0.13,-0.65,9.42,27.46
24712,-0.16,-0.65,9.46,27.56
24729,-0.16,-0.63,9.46,27.46
24744,-0.16,-0.64,9.46,27.51
24762,-0.14,-0.63,9.46,27.46
24779,-0.13,-0.64,9.42,27.44
24795,-0.14,-0.64,9.40,27.56
24812,-0.14,-0.65,9.43,27.46
24829,-0.15,-0.63,9.42,27.56
24845,-0.13,-0.64,9.46,27.56
24862,-0.15,-0.64,9.45,27.46
24880,-0.14,-0.62,9.41,27.56
24896,-0.14,-0.63,9.43,27.56
24912,-0.15,-0.63,9.43,27.46
24930,-0.13,-0.65,9.42,27.56
24946,-0.14,-0.61,9.45,27.46
24963,-0.14,-0.63,9.43,27.56
24980,-0.14,-0.61,9.43,27.56
24996,-0.12,-0.63,9.43,27.44
25013,-0.14,-0.62,9.46,27.56
25031,-0.13,-0.61,9.44,27.56
25047,-0.16,-0.64,9.45,27.44
25063,-0.17,-0.62,9.43,27.56
25081,-0.15,-0.63,9.45,27.46
25097,-0.16,-0.61,9.41,27.46
25114,-0.15,-0.62,9.41,27.56
25132,-0.13,-0.64,9.42,27.44
25147,-0.14,-0.62,9.45,27.44
25164,-0.14,-0.61,9.42,27.46
25182,-0.14,-0.63,9.42,27.46
25197,-0.14,-0.64,9.42,27.56
25214,-0.15,-0.65,9.45,27.44
25232,-0.15,-0.60,9.39,27.46
25247,-0.14,-0.64,9.44,27.56
25265,-0.15,-0.65,9.43,27.46
25282,-0.14,-0.62,9.42,27.56
25298,-0.15,-0.63,9.42,27.55
25315,-0.14,-0.63,9.40,27.44
25332,-0.13,-0.61,9.45,27.56
25349,-0.14,-0.63,9.45,27.46
25365,-0.13,-0.63,9.42,27.56
25383,-0.15,-0.65,9.43,27.56
25399,-0.13,-0.63,9.42,27.46
25415,-0.13,-0.63,9.45,27.56
25434,-0.13,-0.64,9.39,27.46
25449,-0.13,-0.61,9.42,27.46
25466,-0.14,-0.61,9.43,27.56
25484,-0.15,-0.62,9.41,27.46
25499,-0.15,-0.64,9.42,27.44
25517,-0.14,-0.64,9.44,27.44
25534,-0.13,-0.62,9.42,27.46
25549,-0.15,-0.60,9.43,27.56
25567,-0.15,-0.65,9.44,27.46
25584,-0.15,-0.63,9.41,27.46
25600,-0.14,-0.63,9.44,27.56
25617,-0.15,-0.63,9.47,27.46
25634,-0.13,-0.63,9.42,27.56
25651,-0.17,-0.64,9.45,27.56
25667,-0.13,-0.62,9.42,27.44
25684,-0.15,-0.62,9.44,27.56
25701,-0.17,-0.63,9.42,27.56
25717,-0.15,-0.63,9.45,27.44
25736,-0.15,-0.62,9.44,27.56
25751,-0.14,-0.64,9.48,27.46
25767,-0.15,-0.63,9.43,27.56
25786,-0.16,-0.63,9.42,27.46
25801,-0.13,-0.63,9.43,27.44
25819,-0.16,-0.62,9.43,27.56
25836,-0.13,-0.63,9.41,27.46
25851,-0.12,-0.64,9.43,27.46
25869,-0.15,-0.64,9.46,27.55
25886,-0.12,-0.65,9.43,27.46
25902,-0.16,-0.62,9.44,27.46
25919,-0.16,-0.61,9.43,27.46
25936,-0.15,-0.63,9.45,27.44
25952,-0.14,-0.63,9.43,27.56
25969,-0.13,-0.64,9.41,27.46
25987,-0.14,-0.62,9.43,27.46
26002,-0.14,-0.63,9.43,27.56
26019,-0.14,-0.62,9.44,27.46
26037,-0.15,-0.62,9.41,27.56
26053,-0.15,-0.62,9.43,27.56
26070,-0.13,-0.63,9.45,27.44
26087,-0.16,-0.62,9.43,27.55
26103,-0.12,-0.63,9.45,27.46
26120,-0.17,-0.61,9.43,27.55
26138,-0.15,-0.62,9.42,27.55
26153,-0.14,-0.63,9.43,27.46
26170,-0.17,-0.66,9.40,27.56
26188,-0.15,-0.65,9.44,27.46
26204,-0.14,-0.60,9.42,27.44
26221,-0.13,-0.63,9.44,27.56
26238,-0.14,-0.62,9.43,27.46
26254,-0.15,-0.63,9.42,27.46
26271,-0.14,-0.63,9.44,27.46
26289,-0.15,-0.63,9.41,27.46
26304,-0.16,-0.62,9.44,27.55
26321,-0.13,-0.66,9.44,27.44
26339,-0.13,-0.64,9.42,27.46
26354,-0.16,-0.62,9.46,27.55
26372,-0.13,-0.65,9.45,27.46
26389,-0.15,-0.62,9.44,27.56
26404,-0.14,-0.64,9.45,27.55
26422,-0.15,-0.64,9.42,27.46
26439,-0.15,-0.62,9.41,27.55
26456,-0.13,-0.63,9.43,27.56
26472,-0.15,-0.63,9.45,27.44
26489,-0.12,-0.63,9.40,27.56
26506,-0.15,-0.62,9.42,27.46
26522,-0.15,-0.62,9.42,27.56
26541,-0.15,-0.63,9.44,27.56
26556,-0.14,-0.62,9.42,27.44
26572,-0.14,-0.64,9.41,27.56
26591,-0.15,-0.62,9.42,27.44
26606,-0.15,-0.62,9.44,27.46
26622,-0.14,-0.62,9.42,27.55
26641,-0.15,-0.62,9.43,27.44
26656,-0.12,-0.63,9.44,27.44
26674,-0.14,-0.60,9.41,27.56
26691,-0.15,-0.63,9.45,27.46
26706,-0.15,-0.61,9.41,27.44
26724,-0.13,-0.62,9.42,27.46
26741,-0.15,-0.62,9.43,27.46
26757,-0.15,-0.64,9.41,27.56
26774,-0.16,-0.65,9.41,27.44
26791,-0.15,-0.63,9.41,27.55
26808,-0.13,-0.63,9.44,27.55
26824,-0.14,-0.62,9.47,27.44
26842,-0.14,-0.65,9.45,27.56
26858,-0.15,-0.61,9.44,27.49
26874,-0.14,-0.65,9.41,27.46
26893,-0.13,-0.62,9.43,27.55
26908,-0.15,-0.62,9.44,27.44
26925,-0.14,-0.62,9.44,27.56
26943,-0.14,-0.65,9.42,27.56
26958,-0.13,-0.59,9.46,27.46
26975,-0.16,-0.63,9.44,27.56
26993,-0.14,-0.63,9.46,27.46
27009,-0.14,-0.62,9.45,27.44
27026,-0.15,-0.65,9.41,27.56
27043,-0.14,-0.63,9.43,27.44
27059,-0.14,-0.64,9.44,27.46
27076,-0.13,-0.61,9.46,27.46
27094,-0.16,-0.62,9.42,27.44
27109,-0.14,-0.63,9.43,27.44
27126,-0.14,-0.61,9.43,27.46
27144,-0.14,-0.63,9.40,27.46
27159,-0.13,-0.62,9.43,27.56
27176,-0.15,-0.62,9.43,27.44
27194,-0.14,-0.64,9.44,27.44
27209,-0.14,-0.62,9.47,27.55
27227,-0.16,-0.65,9.43,27.46
27244,-0.15,-0.63,9.39,27.56
27260,-0.14,-0.63,9.46,27.56
27277,-0.14,-0.64,9.47,27.46
27294,-0.13,-0.61,9.42,27.56
27311,-0.14,-0.65,9.44,27.44
27327,-0.17,-0.62,9.45,27.55
27344,-0.15,-0.62,9.41,27.55
27361,-0.16,-0.62,9.44,27.46
27377,-0.15,-0.63,9.45,27.56
27396,-0.15,-0.63,9.41,27.44
27411,-0.17,-0.63,9.41,27.44
27427,-0.14,-0.64,9.39,27.56
27446,-0.14,-0.64,9.43,27.44
27461,-0.15,-0.65,9.40,27.46
27479,-0.16,-0.65,9.46,27.55
27496,-0.15,-0.62,9.39,27.44
27511,-0.15,-0.64,9.42,27.46
27529,-0.14,-0.60,9.44,27.44
27546,-0.14,-0.64,9.42,27.46
27561,-0.14,-0.65,9.42,27.56
27579,-0.14,-0.63,9.41,27.46
27596,-0.15,-0.66,9.43,27.56
27612,-0.15,-0.62,9.46,27.56
27629,-0.14,-0.62,9.44,27.44
27646,-0.14,-0.64,9.44,27.56
27663,-0.15,-0.64,9.41,27.56
27679,-0.12,-0.66,9.42,27.46
27697,-0.13,-0.64,9.43,27.56
27713,-0.16,-0.63,9.44,27.46
27729,-0.16,-0.65,9.43,27.56
27748,-0.14,-0.65,9.41,27.56
27763,-0.14,-0.61,9.46,27.46
27780,-0.16,-0.63,9.47,27.56
27798,-0.13,-0.62,9.40,27.46
27813,-0.14,-0.65,9.43,27.44
27831,-0.16,-0.63,9.40,27.56
27848,-0.14,-0.64,9.41,27.44
27864,-0.15,-0.62,9.48,27.49
27881,-0.13,-0.64,9.47,27.46
27898,-0.15,-0.62,9.45,27.46
27914,-0.12,-0.64,9.42,27.46
27931,-0.15,-0.61,9.41,27.46
27949,-0.12,-0.62,9.39,27.44
27964,-0.15,-0.61,9.44,27.56
27981,-0.14,-0.59,9.43,27.44
27999,-0.14,-0.60,9.41,27.56
28014,-0.15,-0.63,9.44,27.56
28032,-0.14,-0.64,9.45,27.44
28049,-0.14,-0.60,9.41,27.56
28065,-0.15,-0.63,9.44,27.55
28082,-0.15,-0.63,9.45,27.46
28099,-0.13,-0.63,9.42,27.55
28115,-0.15,-0.62,9.46,27.44
28132,-0.13,-0.61,9.43,27.56
28150,-0.12,-0.63,9.40,27.55
28166,-0.17,-0.64,9.41,27.46
28182,-0.13,-0.64,9.42,27.56
28200,-0.15,-0.63,9.41,27.44
28216,-0.12,-0.64,9.45,27.44
28232,-0.12,-0.63,9.46,27.56
28251,-0.14,-0.63,9.42,27.46
28266,-0.13,-0.65,9.42,27.46
28283,-0.15,-0.62,9.44,27.46
28301,-0.15,-0.64,9.41,27.44
28316,-0.14,-0.62,9.46,27.49
28334,-0.13,-0.62,9.44,27.46
28351,-0.14,-0.66,9.42,27.46
28366,-0.13,-0.63,9.47,27.55
28384,-0.13,-0.63,9.43,27.46
28401,-0.13,-0.66,9.43,27.56
28418,-0.15,-0.62,9.42,27.56
28434,-0.14,-0.63,9.43,27.46
28451,-0.16,-0.63,9.40,27.56
28468,-0.14,-0.65,9.46,27.56
28484,-0.13,-0.63,9.42,27.46
28502,-0.15,-0.63,9.41,27.55
28518,-0.13,-0.65,9.42,27.44
28534,-0.17,-0.64,9.41,27.56
28553,-0.15,-0.64,9.41,27.56
28568,-0.16,-0.63,9.43,27.46
28584,-0.15,-0.62,9.49,27.56
28603,-0.15,-0.61,9.40,27.46
28618,-0.13,-0.64,9.45,27.46
28636,-0.16,-0.66,9.44,27.56
28653,-0.12,-0.63,9.43,27.46
28668,-0.16,-0.62,9.46,27.46
28686,-0.16,-0.60,9.43,27.46
28703,-0.14,-0.63,9.42,27.46
28719,-0.15,-0.62,9.44,27.56
28736,-0.13,-0.62,9.44,27.46
28753,-0.16,-0.62,9.40,27.46
28769,-0.16,-0.63,9.42,27.56
28786,-0.14,-0.63,9.41,27.46
28804,-0.15,-0.63,9.42,27.56
28820,-0.15,-0.62,9.44,27.56
28836,-0.13,-0.65,9.44,27.46
28854,-0.13,-0.64,9.42,27.56
28870,-0.14,-0.63,9.45,27.56
28887,-0.14,-0.64,9.41,27.44
28904,-0.13,-0.61,9.43,27.56
28920,-0.15,-0.61,9.47,27.46
28937,-0.13,-0.64,9.43,27.56
28955,-0.13,-0.62,9.42,27.56
28971,-0.15,-0.63,9.46,27.46
28987,-0.14,-0.63,9.44,27.56
29005,-0.16,-0.64,9.40,27.46
29021,-0.15,-0.62,9.41,27.44
29038,-0.14,-0.66,9.41,27.56
29056,-0.13,-0.64,9.43,27.44
29071,-0.15,-0.63,9.43,27.49
29088,-0.13,-0.62,9.43,27.46
29106,-0.15,-0.64,9.41,27.46
29121,-0.12,-0.64,9.43,27.56
29138,-0.13,-0.62,9.39,27.46
29156,-0.14,-0.63,9.40,27.46
29171,-0.15,-0.65,9.45,27.56
29189,-0.15,-0.64,9.44,27.44
29206,-0.14,-0.64,9.42,27.56
29222,-0.17,-0.61,9.42,27.56
29239,-0.15,-0.63,9.45,27.46
29256,-0.14,-0.62,9.42,27.56
29273,-0.15,-0.64,9.44,27.56
29289,-0.15,-0.64,9.43,27.46
29306,-0.14,-0.63,9.44,27.56
29323,-0.14,-0.65,9.43,27.46
29339,-0.14,-0.62,9.45,27.55
29358,-0.15,-0.63,9.41,27.56
29373,-0.14,-0.64,9.40,27.46
29389,-0.15,-0.60,9.45,27.56
29408,-0.15,-0.63,9.42,27.46
29423,-0.16,-0.64,9.39,27.46
29441,-0.14,-0.64,9.42,27.56
29458,-0.13,-0.64,9.43,27.46
29473,-0.14,-0.63,9.43,27.46
29491,-0.13,-0.63,9.40,27.56
29508,-0.14,-0.62,9.41,27.46
29523,-0.14,-0.65,9.45,27.44
29541,-0.16,-0.63,9.44,27.46
29558,-0.14,-0.62,9.41,27.46
29574,-0.14,-0.62,9.43,27.56
29591,-0.16,-0.62,9.42,27.46
29608,-0.15,-0.61,9.46,27.46
29624,-0.14,-0.64,9.43,27.56
29641,-0.13,-0.61,9.43,27.46
29659,-0.14,-0.63,9.45,27.56
29675,-0.17,-0.61,9.43,27.56
29691,-0.15,-0.62,9.43,27.46
29709,-0.16,-0.60,9.41,27.56
29725,-0.14,-0.63,9.43,27.46
29742,-0.15,-0.61,9.40,27.56
29760,-0.13,-0.59,9.39,27.46
29775,-0.15,-0.63,9.44,27.46
29792,-0.14,-0.62,9.41,27.56
29810,-0.14,-0.63,9.41,27.44
29826,-0.14,-0.64,9.44,27.46
29843,-0.15,-0.65,9.43,27.56
29860,-0.13,-0.64,9.43,27.46
29876,-0.15,-0.63,9.44,27.46
29893,-0.15,-0.63,9.43,27.51
29911,-0.15,-0.65,9.42,27.44
29926,-0.15,-0.62,9.47,27.56
29943,-0.12,-0.64,9.45,27.46
29961,-0.14,-0.63,9.41,27.46
29976,-0.14,-0.60,9.49,27.56
29993,-0.15,-0.63,9.42,27.46
30011,-0.16,-0.62,9.41,27.56
30026,-0.14,-0.64,9.43,27.56
30044,-0.15,-0.62,9.45,27.46
30061,-0.14,-0.65,9.43,27.56
30077,-0.12,-0.64,9.42,27.56
30094,-0.14,-0.65,9.42,27.46
30111,-0.13,-0.62,9.42,27.56
30128,-0.14,-0.64,9.42,27.56
30144,-0.15,-0.63,9.43,27.46
30161,-0.14,-0.61,9.43,27.56
30178,-0.15,-0.64,9.44,27.46
30194,-0.16,-0.62,9.43,27.56
30213,-0.13,-0.64,9.43,27.56
30228,-0.14,-0.62,9.44,27.46
30244,-0.16,-0.62,9.42,27.56
30263,-0.14,-0.62,9.35,27.46
30278,-0.14,-0.64,9.42,27.46
30296,-0.14,-0.63,9.42,27.56
30313,-0.13,-0.65,9.44,27.46
30328,-0.13,-0.63,9.43,27.46
30346,-0.14,-0.63,9.43,27.46
30363,-0.14,-0.63,9.39,27.46
30379,-0.13,-0.63,9.43,27.44
30396,-0.16,-0.63,9.44,27.46
30413,-0.16,-0.64,9.42,27.46
30429,-0.15,-0.63,9.43,27.56
30446,-0.15,-0.63,9.44,27.46
30464,-0.12,-0.62,9.43,27.55
30480,-0.14,-0.65,9.43,27.56
30496,-0.14,-0.61,9.41,27.46
30514,-0.14,-0.63,9.41,27.56
30530,-0.16,-0.61,9.44,27.46
30546,-0.15,-0.64,9.45,27.56
30565,-0.14,-0.63,9.45,27.56
30580,-0.14,-0.64,9.44,27.46
30597,-0.15,-0.63,9.45,27.56
30615,-0.15,-0.64,9.43,27.56
30630,-0.14,-0.63,9.43,27.46
30647,-0.14,-0.64,9.41,27.56
30665,-0.14,-0.63,9.43,27.46
30681,-0.14,-0.62,9.46,27.46
30698,-0.15,-0.62,9.44,27.56
30715,-0.14,-0.65,9.42,27.44
30731,-0.15,-0.62,9.45,27.46
30748,-0.15,-0.63,9.44,27.46
30766,-0.13,-0.65,9.40,27.46
30781,-0.15,-0.62,9.42,27.56
30798,-0.15,-0.64,9.45,27.44
30816,-0.15,-0.63,9.41,27.46
30831,-0.15,-0.63,9.43,27.56
30849,-0.15,-0.62,9.43,27.46
30866,-0.13,-0.63,9.43,27.56
30882,-0.15,-0.63,9.43,27.56
30899,-0.13,-0.65,9.46,27.44
30916,-0.15,-0.62,9.41,27.56
30932,-0.13,-0.61,9.43,27.44
30949,-0.15,-0.66,9.43,27.56
30967,-0.13,-0.62,9.39,27.56
30983,-0.13,-0.63,9.43,27.46
30999,-0.14,-0.61,9.46,27.56
31017,-0.13,-0.64,9.43,27.46
31033,-0.16,-0.64,9.44,27.46
31050,-0.14,-0.63,9.42,27.56
31068,-0.15,-0.65,9.41,27.46
31083,-0.15,-0.64,9.44,27.46
31100,-0.13,-0.63,9.44,27.56
31118,-0.15,-0.63,9.41,27.46
31133,-0.13,-0.64,9.45,27.46
31151,-0.15,-0.64,9.42,27.46
31168,-0.13,-0.62,9.41,27.46
31183,-0.14,-0.63,9.45,27.46
31201,-0.13,-0.63,9.43,27.46
31218,-0.14,-0.63,9.42,27.46
31234,-0.14,-0.63,9.42,27.56
31251,-0.15,-0.63,9.41,27.46
31268,-0.13,-0.63,9.40,27.56
31284,-0.14,-0.64,9.44,27.56
31301,-0.15,-0.63,9.41,27.46
31319,-0.14,-0.61,9.40,27.56
31335,-0.14,-0.62,9.40,27.56
31351,-0.13,-0.62,9.42,27.46
31370,-0.13,-0.63,9.43,27.56
31385,-0.13,-0.63,9.44,27.46
31401,-0.14,-0.61,9.44,27.56
31420,-0.15,-0.62,9.41,27.56
31435,-0.14,-0.61,9.44,27.44
31452,-0.14,-0.65,9.45,27.55
31470,-0.15,-0.64,9.40,27.46
31485,-0.14,-0.62,9.42,27.46
31503,-0.16,-0.63,9.45,27.56
31520,-0.13,-0.62,9.41,27.44
31536,-0.14,-0.65,9.43,27.44
31553,-0.15,-0.61,9.42,27.44
31570,-0.13,-0.63,9.43,27.46
31586,-0.14,-0.66,9.44,27.56
31603,-0.14,-0.65,9.42,27.46
31621,-0.13,-0.65,9.42,27.46
31636,-0.17,-0.66,9.44,27.55
31653,-0.15,-0.64,9.43,27.46
31671,-0.15,-0.63,9.41,27.56
31687,-0.14,-0.62,9.43,27.55
31704,-0.14,-0.65,9.46,27.46
31721,-0.14,-0.63,9.42,27.56
31737,-0.16,-0.62,9.42,27.49
31754,-0.14,-0.63,9.43,27.44
31771,-0.15,-0.62,9.40,27.56
31788,-0.12,-0.63,9.43,27.46
31804,-0.14,-0.65,9.40,27.56
31821,-0.13,-0.62,9.41,27.56
31838,-0.15,-0.63,9.44,27.44
31854,-0.15,-0.64,9.42,27.56
31873,-0.15,-0.62,9.46,27.46
31888,-0.14,-0.61,9.42,27.44
31905,-0.14,-0.61,9.45,27.55
31923,-0.16,-0.63,9.42,27.46
31938,-0.13,-0.63,9.44,27.44
31955,-0.15,-0.64,9.42,27.46
31973,-0.14,-0.61,9.42,27.46
31988,-0.14,-0.62,9.48,27.56
32006,-0.15,-0.62,9.41,27.44
32023,-0.14,-0.63,9.42,27.46
32038,-0.14,-0.64,9.46,27.55
32056,-0.16,-0.62,9.47,27.46
32073,-0.15,-0.62,9.43,27.55
32090,-0.13,-0.65,9.43,27.56
32106,-0.15,-0.62,9.43,27.44
32123,-0.15,-0.65,9.41,27.56
32140,-0.13,-0.61,9.42,27.56
32156,-0.14,-0.63,9.42,27.46
32174,-0.13,-0.63,9.43,27.56
32190,-0.15,-0.62,9.45,27.46
32206,-0.13,-0.63,9.41,27.56
32224,-0.14,-0.64,9.39,27.55
32240,-0.16,-0.62,9.45,27.46
32257,-0.14,-0.63,9.44,27.56
32275,-0.16,-0.63,9.39,27.46
32290,-0.13,-0.63,9.42,27.46
32307,-0.13,-0.63,9.43,27.56
32325,-0.15,-0.62,9.42,27.46
32340,-0.14,-0.64,9.43,27.46
32358,-0.13,-0.61,9.41,27.56
32375,-0.14,-0.64,9.42,27.44
32391,-0.14,-0.63,9.44,27.46
32408,-0.14,-0.63,9.44,27.44
32425,-0.15,-0.64,9.42,27.46
32441,-0.14,-0.64,9.43,27.56
32458,-0.16,-0.63,9.45,27.44
32476,-0.13,-0.61,9.43,27.46
32491,-0.14,-0.62,9.43,27.56
32508,-0.16,-0.65,9.44,27.46
32526,-0.15,-0.62,9.42,27.56
32542,-0.14,-0.63,9.45,27.55
32559,-0.14,-0.63,9.39,27.46
32576,-0.15,-0.63,9.41,27.55
32592,-0.16,-0.64,9.43,27.44
32609,-0.15,-0.66,9.44,27.55
32626,-0.12,-0.62,9.40,27.56
32643,-0.14,-0.61,9.41,27.46
32659,-0.14,-0.65,9.44,27.56
32677,-0.13,-0.65,9.41,27.46
32693,-0.13,-0.62,9.40,27.46
32709,-0.13,-0.61,9.42,27.56
32728,-0.15,-0.63,9.40,27.46
32743,-0.13,-0.62,9.42,27.44
32760,-0.15,-0.64,9.45,27.56
32778,-0.15,-0.63,9.45,27.46
32793,-0.15,-0.63,9.42,27.44
32811,-0.13,-0.64,9.45,27.44
32828,-0.14,-0.62,9.41,27.46
32843,-0.15,-0.63,9.42,27.56
32861,-0.14,-0.63,9.44,27.46
32878,-0.15,-0.65,9.43,27.44
32893,-0.15,-0.62,9.43,27.55
32911,-0.12,-0.61,9.43,27.44
32928,-0.13,-0.64,9.40,27.56
32945,-0.15,-0.63,9.43,27.56
32961,-0.14,-0.61,9.41,27.46
32978,-0.15,-0.64,9.45,27.56
32995,-0.16,-0.63,9.43,27.44
33011,-0.13,-0.64,9.42,27.56
33030,-0.14,-0.64,9.42,27.56
33045,-0.13,-0.63,9.43,27.46
33061,-0.15,-0.64,9.44,27.56
33080,-0.14,-0.62,9.40,27.56
33095,-0.16,-0.63,9.45,27.44
33112,-0.13,-0.64,9.44,27.55
33130,-0.17,-0.62,9.42,27.46
33145,-0.13,-0.63,9.41,27.46
33163,-0.14,-0.65,9.39,27.56
33180,-0.16,-0.63,9.39,27.44
33196,-0.14,-0.65,9.42,27.46
33213,-0.13,-0.63,9.45,27.46
33230,-0.15,-0.63,9.42,27.46
33246,-0.15,-0.66,9.44,27.55
33263,-0.14,-0.64,9.44,27.44
33281,-0.14,-0.61,9.41,27.44
33296,-0.15,-0.62,9.43,27.56
33313,-0.14,-0.64,9.42,27.46
33331,-0.15,-0.62,9.41,27.55
33347,-0.15,-0.63,9.43,27.56
33363,-0.15,-0.64,9.43,27.46
33381,-0.16,-0.64,9.43,27.55
33397,-0.14,-0.63,9.46,27.44
33414,-0.13,-0.65,9.43,27.46
33432,-0.15,-0.63,9.38,27.56
33447,-0.14,-0.64,9.43,27.46
33464,-0.13,-0.65,9.42,27.56
33482,-0.13,-0.62,9.42,27.56
33498,-0.15,-0.63,9.40,27.46
33514,-0.16,-0.63,9.43,27.56
33532,-0.14,-0.62,9.41,27.46
33548,-0.13,-0.65,9.48,27.46
33565,-0.14,-0.64,9.41,27.56
33583,-0.13,-0.63,9.43,27.46
33598,-0.15,-0.64,9.42,27.46
33615,-0.14,-0.61,9.44,27.46
33633,-0.16,-0.62,9.40,27.46
33648,-0.15,-0.65,9.41,27.56
33666,-0.12,-0.63,9.42,27.44
33683,-0.14,-0.62,9.42,27.46
33698,-0.13,-0.63,9.45,27.56
33716,-0.13,-0.62,9.42,27.46
33733,-0.13,-0.62,9.43,27.56
33750,-0.13,-0.61,9.44,27.56
33766,-0.15,-0.62,9.47,27.46
33783,-0.14,-0.63,9.44,27.56
33800,-0.15,-0.63,9.44,27.46
33816,-0.15,-0.64,9.42,27.56
33833,-0.15,-0.63,9.42,27.56
33850,-0.14,-0.62,9.43,27.46
33866,-0.14,-0.63,9.45,27.56
33885,-0.16,-0.65,9.42,27.56
33900,-0.14,-0.62,9.45,27.44
33916,-0.18,-0.63,9.40,27.56
33935,-0.13,-0.62,9.41,27.44
33950,-0.14,-0.64,9.42,27.46
33968,-0.15,-0.61,9.41,27.56
33985,-0.12,-0.62,9.43,27.46
34000,-0.14,-0.62,9.44,27.46
34018,-0.13,-0.61,9.44,27.46
34035,-0.16,-0.62,9.42,27.46
34051,-0.14,-0.61,9.42,27.56
34068,-0.13,-0.61,9.42,27.46
34085,-0.13,-0.61,9.39,27.44
34101,-0.14,-0.63,9.42,27.56
34118,-0.14,-0.61,9.42,27.46
34136,-0.13,-0.62,9.41,27.56
34152,-0.13,-0.63,9.45,27.56
34168,-0.16,-0.63,9.43,27.46
34186,-0.14,-0.63,9.42,27.56
34202,-0.13,-0.65,9.44,27.44
34219,-0.14,-0.61,9.45,27.56
34236,-0.13,-0.62,9.43,27.56
34252,-0.13,-0.65,9.45,27.46
34269,-0.14,-0.62,9.43,27.56
34287,-0.14,-0.63,9.41,27.56
34302,-0.16,-0.63,9.43,27.46
34319,-0.15,-0.65,9.41,27.56
34337,-0.14,-0.64,9.42,27.46
34353,-0.14,-0.61,9.41,27.46
34370,-0.15,-0.62,9.44,27.56
34387,-0.14,-0.63,9.39,27.46
34403,-0.13,-0.60,9.41,27.46
34420,-0.14,-0.63,9.46,27.46
34438,-0.13,-0.66,9.43,27.44
34453,-0.15,-0.62,9.42,27.56
34470,-0.14,-0.60,9.43,27.46
34488,-0.15,-0.67,9.42,27.46
34503,-0.15,-0.62,9.41,27.56
34521,-0.14,-0.61,9.44,27.46
34538,-0.13,-0.62,9.39,27.55
34554,-0.15,-0.63,9.46,27.56
34571,-0.13,-0.63,9.44,27.46
34589,-0.15,-0.63,9.42,27.56
34605,-0.14,-0.63,9.43,27.46
34621,-0.14,-0.65,9.42,27.56
34638,-0.15,-0.62,9.43,27.56
34655,-0.14,-0.64,9.44,27.46
34671,-0.14,-0.65,9.47,27.56
34690,-0.14,-0.62,9.44,27.44
34705,-0.16,-0.65,9.44,27.46
34721,-0.15,-0.63,9.48,27.56
34740,-0.12,-0.62,9.43,27.44
34755,-0.15,-0.62,9.40,27.44
34772,-0.15,-0.61,9.47,27.48
34790,-0.16,-0.62,9.40,27.46
34805,-0.15,-0.62,9.44,27.56
34823,-0.15,-0.62,9.41,27.46
34840,-0.13,-0.62,9.45,27.46
34855,-0.13,-0.64,9.43,27.56
34873,-0.16,-0.63,9.40,27.46
34890,-0.15,-0.63,9.42,27.56
34906,-0.14,-0.62,9.43,27.56
34923,-0.14,-0.61,9.44,27.46
34940,-0.14,-0.60,9.39,27.56
34957,-0.13,-0.61,9.42,27.56
34973,-0.15,-0.65,9.43,27.46
34991,-0.15,-0.64,9.39,27.55
35007,-0.15,-0.61,9.45,27.46
35023,-0.13,-0.63,9.42,27.56
35041,-0.16,-0.61,9.42,27.56
35057,-0.14,-0.66,9.42,27.46
35074,-0.14,-0.66,9.42,27.56
35092,-0.15,-0.61,9.41,27.46
35107,-0.14,-0.63,9.44,27.46
35124,-0.15,-0.61,9.42,27.56
35142,-0.14,-0.64,9.41,27.46
35158,-0.14,-0.63,9.41,27.44
35175,-0.15,-0.63,9.42,27.55
35192,-0.16,-0.63,9.42,27.46
35208,-0.14,-0.61,9.46,27.55
35225,-0.14,-0.65,9.41,27.44
35243,-0.15,-0.63,9.39,27.46
35258,-0.13,-0.64,9.42,27.56
35275,-0.14,-0.64,9.42,27.46
35293,-0.14,-0.65,9.41,27.46
35308,-0.13,-0.65,9.41,27.56
35325,-0.16,-0.63,9.43,27.46
35343,-0.14,-0.62,9.41,27.56
35359,-0.14,-0.62,9.41,27.56
35376,-0.14,-0.66,9.44,27.44
35393,-0.16,-0.65,9.41,27.56
35409,-0.17,-0.63,9.47,27.46
35426,-0.14,-0.64,9.43,27.56
35444,-0.13,-0.66,9.43,27.56
35460,-0.15,-0.62,9.42,27.46
35476,-0.14,-0.64,9.42,27.55
35494,-0.12,-0.63,9.41,27.44
35510,-0.13,-0.64,9.42,27.44
35526,-0.15,-0.65,9.41,27.56
35545,-0.14,-0.63,9.40,27.44
35560,-0.13,-0.63,9.44,27.44
35577,-0.14,-0.63,9.42,27.56
35595,-0.16,-0.61,9.40,27.46
35610,-0.15,-0.65,9.43,27.46
35628,-0.13,-0.65,9.41,27.44
35645,-0.14,-0.63,9.45,27.46
35660,-0.14,-0.61,9.45,27.56
35678,-0.14,-0.64,9.44,27.46
35695,-0.14,-0.63,9.40,27.56
35712,-0.15,-0.64,9.44,27.55
35728,-0.12,-0.64,9.43,27.46
35745,-0.16,-0.66,9.43,27.56
35762,-0.11,-0.64,9.44,27.56
35778,-0.13,-0.62,9.43,27.46
35795,-0.13,-0.64,9.42,27.56
35812,-0.14,-0.62,9.43,27.44
35828,-0.13,-0.64,9.40,27.51
35847,-0.14,-0.65,9.39,27.56
35862,-0.15,-0.64,9.44,27.46
35878,-0.13,-0.62,9.43,27.56
35897,-0.14,-0.62,9.42,27.46
35912,-0.14,-0.62,9.45,27.46
35930,-0.13,-0.64,9.46,27.56
35947,-0.12,-0.66,9.40,27.46
35962,-0.16,-0.59,9.41,27.44
35980,-0.14,-0.63,9.45,27.46
35997,-0.14,-0.64,9.41,27.46
36013,-0.15,-0.61,9.45,27.56
36030,-0.14,-0.64,9.43,27.46
36047,-0.14,-0.62,9.41,27.46
36063,-0.15,-0.62,9.43,27.56
36080,-0.14,-0.64,9.47,27.46
36098,-0.13,-0.63,9.44,27.56
36114,-0.16,-0.62,9.46,27.56
36130,-0.15,-0.64,9.41,27.44
36148,-0.13,-0.65,9.40,27.56
36164,-0.13,-0.64,9.41,27.55
36180,-0.14,-0.64,9.43,27.44
36199,-0.15,-0.63,9.42,27.56
36214,-0.14,-0.65,9.44,27.46
36231,-0.15,-0.63,9.45,27.56
36249,-0.15,-0.63,9.42,27.46
36264,-0.14,-0.65,9.44,27.46
36281,-0.13,-0.62,9.44,27.56
36299,-0.15,-0.64,9.42,27.46
36315,-0.15,-0.64,9.44,27.46
36332,-0.13,-0.63,9.45,27.56
36349,-0.14,-0.65,9.44,27.46
36365,-0.17,-0.63,9.46,27.44
36382,-0.14,-0.64,9.45,27.44
36400,-0.15,-0.65,9.40,27.46
36415,-0.12,-0.62,9.44,27.56
36432,-0.15,-0.65,9.42,27.44
36450,-0.16,-0.62,9.42,27.44
36465,-0.13,-0.64,9.44,27.56
36483,-0.16,-0.63,9.43,27.46
36500,-0.15,-0.62,9.44,27.56
36516,-0.15,-0.61,9.45,27.56
36533,-0.14,-0.62,9.42,27.46
36550,-0.14,-0.62,9.43,27.56
36567,-0.14,-0.62,9.44,27.55
36583,-0.17,-0.63,9.47,27.46
36600,-0.14,-0.64,9.39,27.56
36617,-0.14,-0.63,9.45,27.46
36633,-0.12,-0.61,9.45,27.56
36652,-0.15,-0.64,9.44,27.56
36667,-0.14,-0.61,9.42,27.46
36683,-0.15,-0.62,9.41,27.56
36702,-0.14,-0.62,9.44,27.46
36717,-0.13,-0.64,9.45,27.46
36734,-0.16,-0.64,9.42,27.56
36752,-0.15,-0.64,9.46,27.44
36767,-0.12,-0.61,9.45,27.46
36785,-0.14,-0.63,9.45,27.46
36802,-0.15,-0.65,9.41,27.46
36817,-0.13,-0.64,9.43,27.55
36835,-0.14,-0.62,9.44,27.46
36852,-0.13,-0.63,9.42,27.46
36868,-0.14,-0.63,9.44,27.56
36885,-0.13,-0.62,9.46,27.46
36902,-0.13,-0.62,9.43,27.55
36919,-0.16,-0.63,9.44,27.56
36935,-0.14,-0.63,9.43,27.46
36953,-0.14,-0.66,9.39,27.56
36969,-0.16,-0.65,9.46,27.56
36985,-0.14,-0.61,9.45,27.44
37003,-0.15,-0.65,9.43,27.56
37019,-0.16,-0.61,9.43,27.44
37036,-0.16,-0.63,9.42,27.56
37054,-0.14,-0.64,9.41,27.55
37069,-0.14,-0.61,9.44,27.46
37086,-0.13,-0.62,9.44,27.56
37104,-0.14,-0.63,9.44,27.46
37120,-0.14,-0.63,9.45,27.44
37137,-0.14,-0.61,9.44,27.56
37154,-0.14,-0.63,9.43,27.46
37170,-0.13,-0.61,9.44,27.46
37187,-0.13,-0.64,9.46,27.46
37204,-0.14,-0.66,9.41,27.46
37220,-0.16,-0.62,9.45,27.56
37237,-0.14,-0.61,9.43,27.46
37255,-0.14,-0.63,9.39,27.44
37270,-0.15,-0.63,9.46,27.56
37287,-0.13,-0.67,9.44,27.46
37305,-0.15,-0.64,9.41,27.56
37321,-0.17,-0.64,9.45,27.56
37338,-0.15,-0.64,9.45,27.46
37355,-0.16,-0.64,9.41,27.56
37371,-0.14,-0.63,9.41,27.46
37388,-0.16,-0.65,9.41,27.56
37406,-0.14,-0.63,9.39,27.56
37422,-0.15,-0.61,9.42,27.44
37438,-0.14,-0.66,9.45,27.56
37456,-0.13,-0.63,9.41,27.46
37472,-0.13,-0.64,9.44,27.44
37488,-0.14,-0.66,9.40,27.56
37507,-0.15,-0.61,9.42,27.44
37522,-0.14,-0.64,9.44,27.46
37539,-0.15,-0.65,9.45,27.56
37557,-0.13,-0.66,9.42,27.46
37572,-0.13,-0.64,9.45,27.44
37590,-0.13,-0.64,9.44,27.44
37607,-0.15,-0.64,9.39,27.46
37622,-0.17,-0.64,9.43,27.56
37640,-0.14,-0.65,9.45,27.46
37657,-0.16,-0.64,9.42,27.46
37672,-0.12,-0.62,9.44,27.56
37690,-0.14,-0.62,9.44,27.44
37707,-0.16,-0.64,9.41,27.55
37724,-0.15,-0.64,9.44,27.56
37740,-0.12,-0.62,9.43,27.46
37757,-0.14,-0.65,9.42,27.55
37774,-0.15,-0.61,9.45,27.46
37790,-0.14,-0.64,9.45,27.56
37809,-0.15,-0.63,9.43,27.56
37824,-0.16,-0.64,9.45,27.46
37840,-0.13,-0.62,9.47,27.56
37859,-0.13,-0.62,9.44,27.46
37874,-0.14,-0.65,9.43,27.46
37892,-0.14,-0.62,9.42,27.55
37909,-0.15,-0.64,9.43,27.46
37924,-0.14,-0.63,9.42,27.44
37942,-0.15,-0.64,9.41,27.46
37959,-0.14,-0.63,9.40,27.44
37975,-0.14,-0.62,9.44,27.56
37992,-0.14,-0.63,9.44,27.46
38009,-0.16,-0.64,9.38,27.46
38025,-0.14,-0.65,9.42,27.56
38042,-0.16,-0.65,9.44,27.46
38060,-0.14,-0.63,9.42,27.46
38075,-0.16,-0.63,9.43,27.56
38092,-0.14,-0.63,9.43,27.44
38110,-0.14,-0.64,9.43,27.56
38126,-0.15,-0.61,9.44,27.56
38142,-0.17,-0.63,9.43,27.46
38160,-0.16,-0.63,9.40,27.56
38176,-0.16,-0.63,9.45,27.56
38193,-0.13,-0.63,9.43,27.46
38210,-0.14,-0.63,9.43,27.56
38226,-0.12,-0.61,9.44,27.46
38243,-0.15,-0.63,9.43,27.56
38261,-0.14,-0.63,9.42,27.56
38277,-0.14,-0.63,9.46,27.46
38293,-0.14,-0.63,9.43,27.56
38311,-0.15,-0.63,9.42,27.44
38327,-0.16,-0.62,9.44,27.46
38344,-0.13,-0.63,9.44,27.56
38362,-0.16,-0.65,9.40,27.46
38377,-0.16,-0.63,9.42,27.46
38394,-0.14,-0.66,9.45,27.46
38412,-0.13,-0.62,9.41,27.46
38427,-0.14,-0.63,9.45,27.56
38445,-0.14,-0.61,9.43,27.44
38462,-0.13,-0.64,9.43,27.46
38477,-0.15,-0.61,9.44,27.56
38495,-0.15,-0.64,9.42,27.46
38512,-0.15,-0.61,9.43,27.56
38529,-0.15,-0.62,9.46,27.55
38545,-0.14,-0.62,9.41,27.46
38562,-0.14,-0.62,9.40,27.56
38579,-0.15,-0.64,9.41,27.46
38595,-0.14,-0.63,9.43,27.55
38614,-0.13,-0.62,9.40,27.56
38629,-0.14,-0.62,9.42,27.46
38645,-0.13,-0.66,9.43,27.55
38664,-0.14,-0.64,9.41,27.46
38679,-0.15,-0.60,9.44,27.44
38695,-0.13,-0.62,9.45,27.55
38714,-0.14,-0.64,9.44,27.46
38729,-0.14,-0.65,9.45,27.44
38747,-0.15,-0.63,9.43,27.56
38764,-0.15,-0.60,9.45,27.46
38779,-0.14,-0.62,9.45,27.46
38797,-0.13,-0.64,9.44,27.46
38814,-0.13,-0.63,9.41,27.46
38830,-0.15,-0.62,9.40,27.56
38847,-0.14,-0.65,9.44,27.46
38864,-0.14,-0.63,9.39,27.46
38880,-0.16,-0.64,9.44,27.56
38897,-0.14,-0.63,9.44,27.44
38915,-0.14,-0.62,9.41,27.56
38931,-0.14,-0.61,9.46,27.56
38947,-0.14,-0.62,9.43,27.46
38965,-0.16,-0.65,9.41,27.56
38981,-0.16,-0.63,9.44,27.56
38998,-0.16,-0.61,9.41,27.44
39015,-0.15,-0.65,9.43,27.56
39031,-0.16,-0.64,9.41,27.44
39048,-0.15,-0.62,9.40,27.56
39066,-0.14,-0.62,9.43,27.56
39081,-0.15,-0.64,9.42,27.44
39098,-0.14,-0.64,9.44,27.56
39116,-0.13,-0.64,9.41,27.46
39132,-0.14,-0.65,9.43,27.46
39149,-0.16,-0.63,9.44,27.46
39166,-0.13,-0.62,9.43,27.46
39182,-0.15,-0.64,9.42,27.56
39199,-0.15,-0.61,9.42,27.46
39217,-0.17,-0.64,9.43,27.46
39232,-0.14,-0.67,9.43,27.56
39249,-0.15,-0.62,9.41,27.46
39267,-0.15,-0.65,9.44,27.44
39282,-0.14,-0.62,9.48,27.56
39300,-0.16,-0.63,9.41,27.46
39317,-0.14,-0.64,9.43,27.56
39333,-0.15,-0.63,9.46,27.56
39350,-0.12,-0.62,9.43,27.44
39367,-0.15,-0.65,9.43,27.56
39384,-0.14,-0.62,9.43,27.56
39400,-0.15,-0.61,9.43,27.44
39418,-0.13,-0.62,9.40,27.56
39434,-0.13,-0.65,9.45,27.44
39450,-0.13,-0.62,9.41,27.56
39469,-0.17,-0.64,9.41,27.55
39484,-0.15,-0.62,9.43,27.46
39500,-0.15,-0.61,9.44,27.55
39519,-0.14,-0.62,9.44,27.46
39534,-0.13,-0.64,9.43,27.44
39552,-0.13,-0.63,9.42,27.56
39569,-0.15,-0.61,9.41,27.46
39584,-0.13,-0.62,9.44,27.44
39602,-0.14,-0.64,9.46,27.44
39619,-0.14,-0.63,9.44,27.46
39634,-0.14,-0.62,9.40,27.56
39652,-0.16,-0.61,9.44,27.44
39669,-0.15,-0.63,9.40,27.55
39686,-0.14,-0.64,9.44,27.55
39702,-0.14,-0.63,9.43,27.46
39719,-0.17,-0.63,9.43,27.56
39736,-0.14,-0.62,9.43,27.46
39752,-0.14,-0.64,9.43,27.46
39770,-0.16,-0.63,9.40,27.56
39786,-0.13,-0.63,9.41,27.46
39802,-0.13,-0.62,9.43,27.56
39821,-0.16,-0.60,9.41,27.56
39836,-0.14,-0.61,9.41,27.46
39853,-0.16,-0.62,9.41,27.56
39871,-0.15,-0.62,9.44,27.46
39886,-0.14,-0.63,9.42,27.46
39904,-0.14,-0.64,9.44,27.56
39921,-0.15,-0.64,9.44,27.46
39937,-0.15,-0.62,9.45,27.46
39954,-0.14,-0.61,9.41,27.46
39971,-0.15,-0.63,9.43,27.46
39987,-0.14,-0.62,9.45,27.56
40004,-0.14,-0.65,9.41,27.46
40022,-0.14,-0.65,9.40,27.44
40037,-0.12,-0.66,9.43,27.56
40054,-0.17,-0.63,9.43,27.46
40072,-0.14,-0.63,9.39,27.46
40087,-0.13,-0.63,9.45,27.55
40104,-0.16,-0.63,9.44,27.46
40122,-0.14,-0.64,9.40,27.56
40138,-0.15,-0.64,9.40,27.56
40155,-0.14,-0.65,9.44,27.44
40172,-0.14,-0.62,9.43,27.56
40188,-0.14,-0.63,9.44,27.46
40205,-0.13,-0.63,9.44,27.56
40223,-0.14,-0.63,9.40,27.46
40239,-0.14,-0.64,9.47,27.46
40255,-0.14,-0.65,9.45,27.56
40273,-0.15,-0.64,9.41,27.46
40289,-0.13,-0.63,9.45,27.46
40306,-0.15,-0.65,9.43,27.56
40324,-0.15,-0.62,9.40,27.46
40339,-0.14,-0.64,9.42,27.46
40356,-0.14,-0.64,9.47,27.46
40374,-0.16,-0.63,9.42,27.46
40389,-0.15,-0.63,9.39,27.56
40407,-0.13,-0.63,9.43,27.46
40424,-0.13,-0.64,9.43,27.56
40440,-0.15,-0.64,9.42,27.56
40457,-0.16,-0.61,9.39,27.46
40474,-0.14,-0.62,9.44,27.56
40491,-0.14,-0.65,9.42,27.56
40507,-0.13,-0.63,9.42,27.44
40524,-0.15,-0.61,9.41,27.56
40541,-0.15,-0.62,9.43,27.46
40557,-0.14,-0.64,9.44,27.55
40576,-0.15,-0.64,9.43,27.56
40591,-0.13,-0.63,9.46,27.46
40607,-0.14,-0.62,9.44,27.56
40626,-0.15,-0.62,9.41,27.56
40641,-0.14,-0.63,9.42,27.46
40657,-0.12,-0.65,9.46,27.56
40676,-0.15,-0.64,9.46,27.46
40691,-0.14,-0.66,9.42,27.44
40709,-0.16,-0.62,9.44,27.56
40726,-0.16,-0.63,9.42,27.46
40741,-0.15,-0.62,9.39,27.46
40759,-0.15,-0.63,9.41,27.46
40776,-0.15,-0.63,9.41,27.44
40792,-0.16,-0.63,9.45,27.44
40809,-0.14,-0.62,9.45,27.46
40826,-0.15,-0.61,9.43,27.46
40842,-0.12,-0.61,9.40,27.56
40859,-0.13,-0.65,9.45,27.46
40877,-0.14,-0.61,9.41,27.44
40892,-0.14,-0.61,9.46,27.55
40909,-0.15,-0.62,9.43,27.46
40927,-0.15,-0.64,9.40,27.56
40943,-0.15,-0.64,9.44,27.56
40960,-0.16,-0.62,9.39,27.44
40977,-0.14,-0.61,9.42,27.56
40993,-0.16,-0.63,9.43,27.46
41010,-0.14,-0.62,9.44,27.55
41028,-0.15,-0.64,9.37,27.56
41043,-0.15,-0.64,9.45,27.46
41060,-0.14,-0.63,9.46,27.56
41078,-0.14,-0.63,9.41,27.44
41094,-0.14,-0.63,9.46,27.44
41110,-0.13,-0.63,9.42,27.56
41128,-0.14,-0.61,9.42,27.46
41144,-0.14,-0.65,9.42,27.46
41161,-0.16,-0.63,9.43,27.55
41179,-0.16,-0.65,9.39,27.46
41194,-0.13,-0.62,9.44,27.44
41211,-0.15,-0.66,9.41,27.46
41229,-0.15,-0.63,9.42,27.46
41244,-0.14,-0.66,9.42,27.56
41262,-0.14,-0.63,9.43,27.46
41279,-0.15,-0.65,9.42,27.44
41294,-0.16,-0.62,9.43,27.56
41312,-0.15,-0.62,9.44,27.46
41329,-0.16,-0.63,9.42,27.56
41346,-0.14,-0.65,9.46,27.56
41362,-0.14,-0.64,9.43,27.46
41379,-0.15,-0.64,9.41,27.56
41396,-0.14,-0.64,9.44,27.44
41412,-0.14,-0.63,9.47,27.55
41431,-0.15,-0.65,9.44,27.55
41446,-0.15,-0.60,9.43,27.46
41462,-0.13,-0.62,9.45,27.56
41481,-0.14,-0.65,9.41,27.44
41496,-0.15,-0.63,9.46,27.46
41513,-0.15,-0.64,9.47,27.56
41531,-0.14,-0.64,9.39,27.46
41546,-0.13,-0.63,9.44,27.44
41564,-0.15,-0.63,9.43,27.46
41581,-0.12,-0.64,9.40,27.44
41596,-0.15,-0.61,9.40,27.56
41614,-0.13,-0.63,9.45,27.46
41631,-0.13,-0.64,9.41,27.46
41647,-0.15,-0.63,9.43,27.56
41664,-0.15,-0.64,9.43,27.46
41681,-0.14,-0.63,9.43,27.56
41698,-0.14,-0.64,9.44,27.56
41714,-0.14,-0.64,9.42,27.44
41732,-0.15,-0.63,9.41,27.56
41748,-0.14,-0.60,9.43,27.56
41764,-0.13,-0.64,9.45,27.46
41783,-0.15,-0.62,9.41,27.56
41798,-0.14,-0.63,9.44,27.46
41815,-0.16,-0.64,9.43,27.56
41833,-0.14,-0.62,9.43,27.55
41848,-0.18,-0.64,9.46,27.46
41865,-0.15,-0.61,9.45,27.56
41883,-0.13,-0.62,9.43,27.56
41899,-0.14,-0.62,9.43,27.44
41915,-0.14,-0.63,9.44,27.55
41933,-0.15,-0.63,9.42,27.46
41949,-0.13,-0.65,9.44,27.46
41966,-0.16,-0.61,9.44,27.56
41984,-0.14,-0.63,9.40,27.44
41999,-0.15,-0.63,9.44,27.44
42016,-0.13,-0.65,9.44,27.46
42034,-0.14,-0.63,9.37,27.46
42049,-0.14,-0.63,9.44,27.56
42066,-0.13,-0.62,9.44,27.46
42084,-0.15,-0.64,9.43,27.46
42099,-0.15,-0.64,9.43,27.56
42117,-0.14,-0.62,9.43,27.46
42134,-0.15,-0.65,9.42,27.56
42150,-0.12,-0.63,9.45,27.56
42167,-0.13,-0.62,9.42,27.44
42184,-0.14,-0.64,9.42,27.56
42201,-0.16,-0.63,9.45,27.56
42217,-0.15,-0.66,9.43,27.46
42234,-0.15,-0.63,9.41,27.56
42251,-0.13,-0.63,9.43,27.44
42267,-0.15,-0.65,9.44,27.56
42286,-0.16,-0.66,9.41,27.56
42301,-0.15,-0.62,9.43,27.44
42317,-0.14,-0.64,9.43,27.56
42336,-0.14,-0.64,9.39,27.44
42351,-0.16,-0.63,9.43,27.46
42369,-0.16,-0.61,9.44,27.56
42386,-0.15,-0.63,9.40,27.46
42401,-0.15,-0.65,9.42,27.46
42419,-0.16,-0.63,9.41,27.46
42436,-0.14,-0.63,9.41,27.46
42451,-0.13,-0.62,9.45,27.44
42469,-0.14,-0.61,9.45,27.46
42486,-0.14,-0.63,9.41,27.44
42502,-0.15,-0.64,9.40,27.56
42519,-0.13,-0.61,9.46,27.44
42536,-0.13,-0.61,9.42,27.56
42553,-0.14,-0.63,9.42,27.56
42569,-0.15,-0.60,9.40,27.44
42587,-0.15,-0.63,9.41,27.56
42603,-0.13,-0.65,9.41,27.56
42619,-0.12,-0.63,9.48,27.46
42637,-0.13,-0.63,9.44,27.56
42653,-0.14,-0.64,9.44,27.46
42670,-0.13,-0.66,9.44,27.56
42688,-0.11,-0.64,9.43,27.56
42703,-0.15,-0.64,9.44,27.44
42720,-0.16,-0.63,9.43,27.56
42738,-0.14,-0.62,9.42,27.46
42754,-0.15,-0.63,9.42,27.46
42771,-0.15,-0.63,9.44,27.56
42788,-0.14,-0.64,9.42,27.46
42804,-0.14,-0.61,9.40,27.55
42821,-0.15,-0.61,9.41,27.44
42839,-0.15,-0.65,9.41,27.44
42854,-0.14,-0.62,9.43,27.56
42871,-0.14,-0.63,9.45,27.46
42889,-0.15,-0.63,9.39,27.46
42904,-0.14,-0.63,9.45,27.56
42921,-0.14,-0.63,9.44,27.44
42939,-0.14,-0.63,9.42,27.56
42955,-0.16,-0.66,9.45,27.56
42972,-0.16,-0.65,9.42,27.44
42989,-0.11,-0.64,9.39,27.56
43005,-0.15,-0.63,9.44,27.46
43022,-0.14,-0.63,9.44,27.56
43040,-0.14,-0.63,9.42,27.55
43056,-0.15,-0.62,9.43,27.46
43072,-0.14,-0.62,9.42,27.56
43090,-0.16,-0.63,9.43,27.56
43106,-0.16,-0.60,9.43,27.46
43122,-0.14,-0.66,9.45,27.56
43141,-0.14,-0.62,9.44,27.56
43156,-0.14,-0.62,9.42,27.46
43172,-0.14,-0.61,9.42,27.56
43191,-0.14,-0.63,9.43,27.46
43206,-0.14,-0.62,9.43,27.46
43224,-0.14,-0.63,9.43,27.46
43241,-0.12,-0.62,9.41,27.46
43256,-0.12,-0.63,9.45,27.56
43274,-0.14,-0.65,9.45,27.44
43291,-0.14,-0.62,9.43,27.44
43307,-0.13,-0.64,9.44,27.55
43324,-0.14,-0.64,9.44,27.44
43341,-0.14,-0.63,9.42,27.55
43358,-0.13,-0.63,9.43,27.56
43374,-0.13,-0.61,9.42,27.46
43392,-0.15,-0.63,9.40,27.55
43408,-0.14,-0.63,9.40,27.46
43424,-0.13,-0.62,9.46,27.44
43442,-0.14,-0.64,9.42,27.56
43458,-0.16,-0.64,9.44,27.44
43474,-0.13,-0.64,9.43,27.56
43493,-0.13,-0.60,9.43,27.49
43508,-0.13,-0.62,9.41,27.46
43525,-0.14,-0.63,9.44,27.56
43543,-0.14,-0.62,9.40,27.46
43558,-0.14,-0.64,9.46,27.46
43576,-0.15,-0.60,9.45,27.56
43593,-0.12,-0.63,9.44,27.46
43609,-0.14,-0.67,9.43,27.46
43626,-0.13,-0.63,9.43,27.56
43643,-0.14,-0.63,9.42,27.46
43659,-0.16,-0.63,9.41,27.46
43676,-0.14,-0.63,9.45,27.44
43694,-0.16,-0.62,9.42,27.44
43709,-0.13,-0.64,9.44,27.56
43726,-0.14,-0.63,9.46,27.46
43744,-0.13,-0.62,9.42,27.46
43759,-0.14,-0.62,9.44,27.56
43777,-0.15,-0.63,9.42,27.44
43794,-0.13,-0.63,9.43,27.56
43810,-0.14,-0.65,9.43,27.56
43827,-0.14,-0.66,9.42,27.46
43845,-0.13,-0.63,9.41,27.56
43860,-0.16,-0.62,9.41,27.44
43877,-0.15,-0.62,9.42,27.56
43895,-0.11,-0.63,9.41,27.46
43911,-0.15,-0.63,9.43,27.46
43927,-0.14,-0.65,9.42,27.56
43945,-0.15,-0.63,9.40,27.46
43961,-0.15,-0.62,9.44,27.46
43978,-0.15,-0.64,9.42,27.56
43996,-0.15,-0.65,9.41,27.44
44011,-0.16,-0.62,9.41,27.46
44028,-0.14,-0.62,9.43,27.46
44046,-0.15,-0.64,9.43,27.46
44061,-0.13,-0.61,9.46,27.56
44079,-0.15,-0.63,9.42,27.44
44096,-0.15,-0.65,9.42,27.46
44111,-0.14,-0.65,9.46,27.56
44129,-0.15,-0.62,9.47,27.46
44146,-0.14,-0.62,9.42,27.55
44163,-0.15,-0.61,9.43,27.56
44179,-0.13,-0.60,9.44,27.46
44196,-0.15,-0.65,9.43,27.56
44213,-0.13,-0.64,9.43,27.44
44229,-0.15,-0.63,9.46,27.46
44248,-0.13,-0.64,9.42,27.56
44263,-0.14,-0.62,9.46,27.46
44279,-0.13,-0.63,9.41,27.56
44298,-0.15,-0.61,9.40,27.55
44313,-0.14,-0.66,9.43,27.44
44329,-0.14,-0.61,9.40,27.55
44348,-0.14,-0.64,9.43,27.46
44363,-0.15,-0.63,9.44,27.44
44381,-0.17,-0.64,9.44,27.55
44398,-0.15,-0.62,9.42,27.46
44413,-0.12,-0.63,9.44,27.46
44431,-0.15,-0.64,9.42,27.46
44448,-0.14,-0.62,9.45,27.44
44464,-0.15,-0.63,9.44,27.56
44481,-0.12,-0.64,9.45,27.46
44498,-0.14,-0.62,9.41,27.44
44514,-0.14,-0.62,9.44,27.56
44531,-0.14,-0.62,9.42,27.46
44549,-0.16,-0.62,9.41,27.46
44564,-0.15,-0.65,9.44,27.56
44581,-0.15,-0.63,9.44,27.46
44599,-0.16,-0.63,9.43,27.56
44615,-0.15,-0.64,9.45,27.55
44632,-0.14,-0.65,9.42,27.44
44650,-0.14,-0.66,9.42,27.56
44665,-0.15,-0.62,9.44,27.46
44682,-0.15,-0.62,9.43,27.56
44700,-0.16,-0.65,9.41,27.56
44716,-0.13,-0.64,9.44,27.46
44732,-0.15,-0.64,9.45,27.56
44750,-0.13,-0.63,9.41,27.46
44766,-0.14,-0.62,9.45,27.46
44783,-0.13,-0.63,9.43,27.56
44801,-0.15,-0.66,9.42,27.46
44816,-0.13,-0.65,9.45,27.44
44833,-0.15,-0.63,9.44,27.46
44851,-0.17,-0.64,9.46,27.44
44866,-0.12,-0.64,9.45,27.46
44883,-0.13,-0.63,9.46,27.46
44901,-0.13,-0.63,9.42,27.44
44916,-0.15,-0.63,9.41,27.56
44934,-0.16,-0.61,9.43,27.46
44951,-0.14,-0.62,9.42,27.46
44966,-0.16,-0.62,9.45,27.56
44984,-0.17,-0.64,9.47,27.44
45001,-0.15,-0.60,9.42,27.56
45018,-0.15,-0.60,9.45,27.56
45034,-0.12,-0.63,9.41,27.46
45052,-0.17,-0.62,9.40,27.56
45068,-0.14,-0.62,9.44,27.46
45084,-0.15,-0.63,9.43,27.55
45103,-0.14,-0.63,9.38,27.56
45118,-0.17,-0.64,9.44,27.46
45134,-0.14,-0.63,9.43,27.56
45153,-0.13,-0.63,9.42,27.46
45168,-0.14,-0.63,9.47,27.44
45186,-0.15,-0.65,9.40,27.56
45203,-0.15,-0.64,9.42,27.46
45218,-0.14,-0.65,9.45,27.46
45236,-0.15,-0.64,9.40,27.46
45253,-0.14,-0.64,9.45,27.46
45268,-0.14,-0.63,9.43,27.49
45286,-0.13,-0.61,9.42,27.44
45303,-0.15,-0.65,9.39,27.46
45319,-0.15,-0.65,9.45,27.56
45336,-0.16,-0.66,9.43,27.44
45353,-0.16,-0.63,9.40,27.56
45369,-0.13,-0.63,9.44,27.56
45386,-0.14,-0.63,9.41,27.44
45404,-0.14,-0.63,9.45,27.56
45420,-0.14,-0.66,9.43,27.56
45436,-0.14,-0.66,9.44,27.46
45454,-0.15,-0.61,9.42,27.56
45470,-0.15,-0.61,9.45,27.56
45487,-0.14,-0.63,9.45,27.44
45504,-0.14,-0.64,9.42,27.56
45520,-0.15,-0.63,9.42,27.44
45537,-0.17,-0.62,9.43,27.56
45555,-0.14,-0.63,9.40,27.46
45571,-0.15,-0.64,9.46,27.46
45588,-0.14,-0.62,9.45,27.55
45605,-0.14,-0.65,9.42,27.44
45621,-0.14,-0.62,9.45,27.46
45638,-0.16,-0.63,9.43,27.44
45656,-0.15,-0.64,9.41,27.46
45671,-0.13,-0.63,9.44,27.56
45688,-0.14,-0.64,9.41,27.46
45706,-0.14,-0.63,9.46,27.46
45721,-0.14,-0.63,9.40,27.56
45739,-0.14,-0.63,9.42,27.46
45756,-0.14,-0.63,9.39,27.56
45771,-0.15,-0.63,9.42,27.55
45789,-0.16,-0.63,9.45,27.44
45806,-0.14,-0.61,9.39,27.56
45822,-0.15,-0.63,9.44,27.56
45839,-0.13,-0.62,9.44,27.46
45856,-0.14,-0.63,9.41,27.56
45873,-0.14,-0.63,9.44,27.56
45889,-0.14,-0.63,9.42,27.46
45907,-0.15,-0.63,9.40,27.55
45923,-0.13,-0.65,9.45,27.46
45939,-0.15,-0.62,9.43,27.56
45958,-0.14,-0.61,9.43,27.44
45973,-0.14,-0.61,9.43,27.46
45990,-0.16,-0.63,9.43,27.56
46008,-0.15,-0.63,9.44,27.46
46023,-0.12,-0.63,9.45,27.46
46041,-0.15,-0.62,9.43,27.46
46058,-0.13,-0.61,9.41,27.44
46073,-0.14,-0.64,9.43,27.56
46091,-0.14,-0.61,9.43,27.46
46108,-0.15,-0.64,9.41,27.46
46124,-0.14,-0.62,9.43,27.56
46141,-0.14,-0.64,9.41,27.46
46158,-0.14,-0.61,9.40,27.56
46175,-0.15,-0.62,9.45,27.55
46191,-0.14,-0.63,9.47,27.46
46209,-0.15,-0.62,9.41,27.56
46225,-0.14,-0.62,9.41,27.56
46241,-0.14,-0.66,9.41,27.44
46259,-0.13,-0.62,9.40,27.56
46275,-0.14,-0.64,9.44,27.46
46291,-0.15,-0.65,9.45,27.56
46310,-0.14,-0.62,9.39,27.56
46325,-0.15,-0.62,9.43,27.44
46342,-0.16,-0.64,9.42,27.56
46360,-0.12,-0.65,9.43,27.56
46375,-0.16,-0.61,9.44,27.44
46392,-0.14,-0.64,9.44,27.56
46410,-0.14,-0.62,9.39,27.46
46426,-0.17,-0.64,9.46,27.46
46443,-0.15,-0.63,9.43,27.55
46460,-0.13,-0.63,9.42,27.46
46476,-0.13,-0.64,9.46,27.44
46493,-0.12,-0.64,9.41,27.44
46511,-0.15,-0.61,9.41,27.46
46526,-0.15,-0.63,9.42,27.44
46543,-0.14,-0.65,9.47,27.46
46561,-0.15,-0.65,9.41,27.44
46576,-0.13,-0.61,9.44,27.55
46594,-0.15,-0.62,9.44,27.44
46611,-0.15,-0.63,9.42,27.56
46626,-0.14,-0.63,9.41,27.55
46644,-0.13,-0.63,9.45,27.44
46661,-0.13,-0.63,9.44,27.56
46678,-0.15,-0.62,9.44,27.56
46694,-0.16,-0.63,9.41,27.46
46711,-0.13,-0.61,9.43,27.55
46728,-0.13,-0.65,9.47,27.44
46744,-0.14,-0.63,9.45,27.56
46763,-0.15,-0.63,9.42,27.55
46778,-0.15,-0.61,9.46,27.44
46794,-0.15,-0.64,9.46,27.56
46813,-0.15,-0.61,9.44,27.44
46828,-0.14,-0.63,9.40,27.44
46845,-0.14,-0.63,9.44,27.55
46863,-0.13,-0.66,9.41,27.44
46878,-0.15,-0.65,9.43,27.46
46896,-0.14,-0.62,9.46,27.44
46913,-0.15,-0.63,9.40,27.44
46928,-0.16,-0.65,9.41,27.46
46946,-0.17,-0.62,9.42,27.46
46963,-0.14,-0.65,9.43,27.46
46979,-0.15,-0.62,9.44,27.56
46996,-0.16,-0.65,9.46,27.44
47013,-0.14,-0.63,9.40,27.56
47030,-0.15,-0.61,9.42,27.55
47046,-0.15,-0.65,9.45,27.44
47064,-0.15,-0.64,9.40,27.56
47080,-0.16,-0.64,9.43,27.44
47096,-0.13,-0.62,9.42,27.44
47115,-0.15,-0.65,9.40,27.55
47130,-0.14,-0.62,9.44,27.46
47147,-0.13,-0.62,9.42,27.55
47165,-0.14,-0.62,9.41,27.56
47180,-0.15,-0.63,9.43,27.46
47197,-0.13,-0.62,9.41,27.56
47215,-0.13,-0.62,9.39,27.44
47230,-0.13,-0.62,9.46,27.44
47248,-0.14,-0.62,9.44,27.56
47265,-0.15,-0.63,9.40,27.46
47281,-0.15,-0.64,9.44,27.44
47298,-0.14,-0.62,9.39,27.46
47315,-0.15,-0.61,9.41,27.46
47331,-0.15,-0.64,9.45,27.56
47348,-0.14,-0.64,9.45,27.46
47366,-0.14,-0.65,9.44,27.46
47381,-0.14,-0.65,9.42,27.56
47398,-0.14,-0.66,9.47,27.46
47416,-0.14,-0.63,9.42,27.44
47431,-0.14,-0.62,9.45,27.55
47449,-0.15,-0.64,9.42,27.46
47466,-0.14,-0.62,9.41,27.56
47481,-0.13,-0.61,9.43,27.55
47499,-0.13,-0.67,9.43,27.46
47516,-0.13,-0.62,9.44,27.55
47533,-0.14,-0.61,9.43,27.44
47549,-0.14,-0.64,9.43,27.55
47567,-0.14,-0.61,9.41,27.56
47583,-0.15,-0.63,9.41,27.44
47599,-0.15,-0.64,9.45,27.55
47618,-0.15,-0.63,9.42,27.44
47633,-0.14,-0.63,9.44,27.46
47650,-0.16,-0.63,9.45,27.55
47668,-0.18,-0.63,9.42,27.46
47683,-0.14,-0.63,9.44,27.44
47700,-0.13,-0.64,9.45,27.55
47718,-0.14,-0.62,9.42,27.44
47733,-0.15,-0.63,9.41,27.56
47751,-0.14,-0.62,9.45,27.44
47768,-0.13,-0.63,9.41,27.44
47783,-0.15,-0.63,9.46,27.55
47801,-0.13,-0.63,9.42,27.46
47818,-0.13,-0.63,9.41,27.49
47834,-0.12,-0.64,9.42,27.56
47851,-0.14,-0.63,9.43,27.44
47868,-0.14,-0.64,9.41,27.56
47885,-0.14,-0.64,9.45,27.56
47901,-0.13,-0.63,9.40,27.46
47919,-0.14,-0.64,9.43,27.56
47935,-0.15,-0.62,9.43,27.46
47951,-0.14,-0.65,9.45,27.55
47970,-0.14,-0.61,9.40,27.55
47985,-0.14,-0.60,9.43,27.46
48002,-0.13,-0.63,9.44,27.56
48020,-0.14,-0.63,9.44,27.44
48035,-0.13,-0.63,9.44,27.44
48053,-0.14,-0.62,9.45,27.56
48070,-0.15,-0.62,9.39,27.46
48086,-0.15,-0.63,9.42,27.44
48103,-0.14,-0.63,9.45,27.46
48120,-0.13,-0.64,9.42,27.44
48136,-0.15,-0.64,9.42,27.55
48153,-0.13,-0.63,9.41,27.46
48171,-0.13,-0.62,9.40,27.44
48186,-0.15,-0.63,9.40,27.56
48203,-0.14,-0.64,9.46,27.46
48221,-0.16,-0.65,9.43,27.56
48236,-0.15,-0.63,9.45,27.56
48253,-0.15,-0.62,9.42,27.46
48271,-0.13,-0.64,9.43,27.56
48287,-0.15,-0.62,9.43,27.55
48304,-0.13,-0.62,9.43,27.46
48321,-0.14,-0.63,9.42,27.55
48337,-0.13,-0.62,9.40,27.44
48354,-0.15,-0.64,9.43,27.56
48372,-0.14,-0.61,9.40,27.56
48388,-0.13,-0.64,9.41,27.46
48404,-0.15,-0.66,9.43,27.55
48422,-0.14,-0.62,9.46,27.44
48438,-0.16,-0.63,9.42,27.46
48455,-0.14,-0.66,9.43,27.56
48473,-0.14,-0.64,9.44,27.46
48488,-0.15,-0.61,9.43,27.44
48505,-0.16,-0.64,9.46,27.55
48523,-0.18,-0.63,9.42,27.44
48538,-0.15,-0.62,9.44,27.44
48556,-0.15,-0.63,9.44,27.44
48573,-0.14,-0.62,9.40,27.44
48588,-0.15,-0.62,9.47,27.56
48606,-0.14,-0.63,9.41,27.46
48623,-0.14,-0.63,9.44,27.46
48638,-0.13,-0.62,9.42,27.56
48656,-0.14,-0.63,9.42,27.46
48673,-0.15,-0.64,9.42,27.56
48690,-0.14,-0.63,9.43,27.55
48706,-0.13,-0.63,9.48,27.46
48723,-0.13,-0.63,9.41,27.56
48740,-0.16,-0.65,9.44,27.46
48756,-0.14,-0.65,9.43,27.56
48775,-0.13,-0.63,9.42,27.56
48790,-0.15,-0.65,9.44,27.44
48806,-0.13,-0.63,9.44,27.56
48825,-0.14,-0.62,9.42,27.55
48840,-0.15,-0.61,9.45,27.46
48857,-0.12,-0.63,9.42,27.56
48875,-0.14,-0.62,9.42,27.44
48890,-0.13,-0.64,9.40,27.44
48908,-0.16,-0.63,9.44,27.55
48925,-0.15,-0.61,9.41,27.46
48941,-0.13,-0.63,9.41,27.46
48958,-0.15,-0.61,9.44,27.44
48975,-0.15,-0.64,9.43,27.44
48991,-0.15,-0.63,9.43,27.56
49008,-0.16,-0.63,9.43,27.46
49026,-0.15,-0.64,9.42,27.46
49041,-0.14,-0.62,9.44,27.55
49058,-0.15,-0.65,9.41,27.44
49076,-0.14,-0.63,9.41,27.56
49092,-0.14,-0.62,9.41,27.55
49108,-0.16,-0.63,9.43,27.46
49126,-0.13,-0.65,9.47,27.56
49142,-0.15,-0.66,9.47,27.46
49159,-0.14,-0.60,9.46,27.56
49176,-0.14,-0.64,9.41,27.55
49192,-0.16,-0.64,9.41,27.46
49209,-0.13,-0.63,9.42,27.55
49227,-0.13,-0.63,9.41,27.44
49243,-0.16,-0.64,9.43,27.44
49259,-0.14,-0.65,9.43,27.55
49277,-0.14,-0.64,9.43,27.44
49293,-0.16,-0.63,9.41,27.46
49310,-0.15,-0.62,9.42,27.55
49328,-0.14,-0.63,9.41,27.44
49343,-0.15,-0.63,9.45,27.56
49360,-0.14,-0.62,9.42,27.46
49378,-0.15,-0.63,9.39,27.46
49393,-0.15,-0.61,9.43,27.56
49411,-0.14,-0.64,9.41,27.46
49428,-0.15,-0.65,9.43,27.46
49443,-0.15,-0.63,9.43,27.56
49461,-0.13,-0.63,9.42,27.44
49478,-0.14,-0.61,9.40,27.56
49495,-0.15,-0.62,9.42,27.55
49511,-0.15,-0.62,9.43,27.44
49528,-0.14,-0.64,9.43,27.55
49545,-0.16,-0.64,9.42,27.46
49561,-0.17,-0.64,9.41,27.56
49579,-0.15,-0.63,9.45,27.55
49595,-0.14,-0.65,9.43,27.44
49611,-0.14,-0.63,9.42,27.55
49630,-0.15,-0.64,9.42,27.44
49645,-0.15,-0.64,9.43,27.44
49661,-0.15,-0.65,9.43,27.55
49680,-0.16,-0.64,9.41,27.44
49695,-0.15,-0.64,9.45,27.46
49713,-0.14,-0.64,9.43,27.56
49730,-0.15,-0.66,9.41,27.44
49745,-0.14,-0.62,9.45,27.44
49763,-0.12,-0.64,9.46,27.44
49780,-0.14,-0.62,9.43,27.44
49796,-0.15,-0.63,9.42,27.56
49813,-0.13,-0.63,9.41,27.46
49830,-0.16,-0.64,9.43,27.46
49846,-0.14,-0.64,9.42,27.55
49863,-0.15,-0.63,9.43,27.46
49881,-0.13,-0.63,9.40,27.55
49897,-0.14,-0.62,9.42,27.55
49913,-0.13,-0.63,9.43,27.46
49931,-0.14,-0.63,9.42,27.56
49947,-0.15,-0.63,9.45,27.44
49964,-0.12,-0.62,9.41,27.55
49981,-0.13,-0.63,9.39,27.55
49997,-0.14,-0.63,9.43,27.46
50014,-0.15,-0.65,9.45,27.56
50032,-0.13,-0.65,9.40,27.56
50048,-0.14,-0.62,9.43,27.44
50064,-0.17,-0.62,9.44,27.56
50082,-0.15,-0.64,9.42,27.44
50098,-0.13,-0.65,9.44,27.44
50115,-0.14,-0.64,9.42,27.55
50132,-0.15,-0.62,9.43,27.44
50148,-0.16,-0.63,9.45,27.46
50165,-0.16,-0.64,9.40,27.46
50183,-0.16,-0.63,9.42,27.44
50198,-0.14,-0.63,9.42,27.56
50215,-0.15,-0.63,9.44,27.44
50233,-0.14,-0.66,9.41,27.44
50248,-0.15,-0.63,9.46,27.56
50266,-0.13,-0.61,9.46,27.44
50283,-0.13,-0.63,9.40,27.56
50299,-0.13,-0.64,9.42,27.55
50316,-0.15,-0.64,9.44,27.46
50333,-0.14,-0.62,9.41,27.56
50350,-0.14,-0.62,9.46,27.46
50366,-0.14,-0.64,9.44,27.56
50384,-0.12,-0.66,9.39,27.56
50400,-0.15,-0.63,9.43,27.44
50416,-0.15,-0.64,9.43,27.56
50435,-0.14,-0.63,9.44,27.46
50450,-0.16,-0.63,9.44,27.46
50466,-0.15,-0.63,9.41,27.56
50485,-0.14,-0.62,9.42,27.46
50500,-0.14,-0.64,9.44,27.46
50518,-0.15,-0.64,9.40,27.56
50535,-0.16,-0.65,9.41,27.46
50550,-0.14,-0.64,9.42,27.56
50568,-0.15,-0.64,9.46,27.44
50585,-0.16,-0.64,9.43,27.46
50600,-0.14,-0.60,9.46,27.56
50618,-0.14,-0.64,9.42,27.46
50635,-0.15,-0.61,9.40,27.56
50651,-0.17,-0.63,9.42,27.56
50668,-0.14,-0.62,9.42,27.44
50685,-0.13,-0.64,9.42,27.56
50702,-0.16,-0.63,9.45,27.56
50718,-0.15,-0.60,9.44,27.46
50737,-0.15,-0.64,9.43,27.56
50752,-0.16,-0.65,9.44,27.46
50768,-0.15,-0.64,9.40,27.56
50787,-0.14,-0.63,9.41,27.56
50802,-0.14,-0.62,9.45,27.46
50819,-0.15,-0.62,9.44,27.56
50837,-0.16,-0.64,9.42,27.46
50852,-0.14,-0.64,9.46,27.46
50869,-0.16,-0.62,9.42,27.56
50887,-0.14,-0.64,9.41,27.44
50903,-0.15,-0.63,9.45,27.44
50920,-0.13,-0.63,9.42,27.56
50937,-0.16,-0.64,9.41,27.46
50953,-0.15,-0.62,9.44,27.56
50970,-0.15,-0.63,9.47,27.46
50988,-0.14,-0.64,9.41,27.46
51003,-0.15,-0.63,9.45,27.56
51020,-0.14,-0.62,9.42,27.46
51038,-0.15,-0.64,9.42,27.46
51053,-0.12,-0.64,9.45,27.56
51070,-0.15,-0.65,9.44,27.46
51088,-0.13,-0.64,9.40,27.46
51103,-0.14,-0.62,9.43,27.55
51121,-0.16,-0.64,9.43,27.46
51138,-0.14,-0.63,9.41,27.55
51154,-0.15,-0.64,9.42,27.46
51171,-0.15,-0.63,9.43,27.46
51188,-0.14,-0.63,9.41,27.56
51205,-0.15,-0.64,9.44,27.46
51221,-0.14,-0.64,9.44,27.56
51238,-0.14,-0.63,9.44,27.56
51255,-0.15,-0.64,9.42,27.46
51271,-0.14,-0.64,9.43,27.56
51290,-0.15,-0.64,9.41,27.46
51305,-0.14,-0.64,9.43,27.46
51322,-0.13,-0.62,9.45,27.56
51340,-0.13,-0.67,9.42,27.44
51355,-0.16,-0.62,9.47,27.46
51373,-0.14,-0.62,9.39,27.44
51390,-0.14,-0.64,9.41,27.46
51405,-0.13,-0.64,9.44,27.56
51423,-0.13,-0.63,9.44,27.46
51440,-0.14,-0.63,9.41,27.46
51456,-0.16,-0.63,9.42,27.55
51473,-0.14,-0.62,9.46,27.46
51490,-0.16,-0.63,9.42,27.56
51507,-0.16,-0.62,9.43,27.56
51523,-0.16,-0.67,9.41,27.46
51540,-0.13,-0.63,9.43,27.56
51557,-0.13,-0.61,9.46,27.46
51573,-0.14,-0.62,9.43,27.56
51592,-0.15,-0.63,9.44,27.56
51607,-0.14,-0.63,9.40,27.44
51623,-0.15,-0.65,9.41,27.56
51642,-0.15,-0.62,9.38,27.46
51657,-0.15,-0.66,9.43,27.46
51675,-0.14,-0.63,9.42,27.56
51692,-0.15,-0.61,9.42,27.46
51707,-0.15,-0.64,9.42,27.46
51725,-0.15,-0.64,9.39,27.53
51742,-0.15,-0.61,9.40,27.46
51758,-0.16,-0.64,9.42,27.46
51775,-0.15,-0.64,9.43,27.46
51792,-0.14,-0.66,9.41,27.46
51808,-0.15,-0.64,9.41,27.56
51825,-0.15,-0.65,9.43,27.46
51843,-0.15,-0.64,9.42,27.46
51858,-0.15,-0.62,9.43,27.56
51875,-0.16,-0.61,9.45,27.46
51893,-0.15,-0.61,9.42,27.56
51909,-0.15,-0.61,9.41,27.56
51926,-0.13,-0.63,9.42,27.44
51944,-0.14,-0.63,9.43,27.56
51959,-0.16,-0.61,9.44,27.46
51976,-0.14,-0.66,9.43,27.56
51994,-0.14,-0.60,9.40,27.56
52009,-0.14,-0.59,9.46,27.46
52026,-0.15,-0.63,9.43,27.56
52044,-0.17,-0.62,9.41,27.44
52060,-0.14,-0.63,9.43,27.46
52077,-0.13,-0.63,9.41,27.56
52094,-0.14,-0.65,9.44,27.46
52110,-0.13,-0.63,9.43,27.44
52127,-0.14,-0.65,9.46,27.46
52145,-0.13,-0.63,9.41,27.46
52160,-0.13,-0.63,9.42,27.46
52177,-0.14,-0.66,9.46,27.46
52195,-0.14,-0.63,9.41,27.46
52210,-0.14,-0.63,9.43,27.56
52228,-0.15,-0.63,9.42,27.46
52245,-0.16,-0.62,9.40,27.56
52260,-0.14,-0.65,9.45,27.56
52278,-0.17,-0.63,9.44,27.46
52295,-0.15,-0.61,9.44,27.56
52312,-0.17,-0.60,9.41,27.56
52328,-0.15,-0.64,9.44,27.46
52345,-0.14,-0.61,9.44,27.56
52362,-0.15,-0.63,9.44,27.46
52378,-0.14,-0.62,9.43,27.56
52397,-0.15,-0.64,9.43,27.56
52412,-0.12,-0.67,9.46,27.44
52428,-0.14,-0.61,9.44,27.56
52447,-0.14,-0.65,9.41,27.46
52462,-0.14,-0.64,9.43,27.46
52480,-0.15,-0.63,9.43,27.56
52497,-0.15,-0.63,9.44,27.46
52512,-0.14,-0.62,9.44,27.46
52530,-0.13,-0.63,9.45,27.46
52547,-0.15,-0.62,9.42,27.46
52562,-0.15,-0.65,9.43,27.46
52580,-0.13,-0.61,9.44,27.46
52597,-0.15,-0.63,9.41,27.46
52613,-0.15,-0.62,9.42,27.56
52630,-0.14,-0.62,9.45,27.46
52647,-0.14,-0.62,9.44,27.56
52664,-0.14,-0.61,9.45,27.56
52680,-0.16,-0.62,9.44,27.46
52698,-0.13,-0.64,9.45,27.56
52714,-0.13,-0.65,9.43,27.56
52730,-0.13,-0.64,9.45,27.46
52748,-0.18,-0.62,9.42,27.55
52764,-0.15,-0.65,9.43,27.46
52781,-0.16,-0.65,9.40,27.56
52799,-0.16,-0.64,9.41,27.56
52814,-0.15,-0.65,9.41,27.46
52831,-0.13,-0.63,9.47,27.56
52849,-0.14,-0.64,9.40,27.46
52865,-0.15,-0.62,9.44,27.44
52882,-0.13,-0.63,9.44,27.56
52899,-0.15,-0.62,9.42,27.46
52915,-0.14,-0.64,9.42,27.44
52932,-0.13,-0.63,9.42,27.44
52950,-0.13,-0.63,9.41,27.46
52965,-0.15,-0.62,9.48,27.44
52982,-0.14,-0.64,9.44,27.46
53000,-0.14,-0.64,9.37,27.46
53015,-0.15,-0.63,9.46,27.56
53032,-0.16,-0.63,9.44,27.46
53050,-0.14,-0.65,9.40,27.56
53066,-0.14,-0.60,9.41,27.56
53083,-0.13,-0.63,9.44,27.46
53100,-0.15,-0.64,9.41,27.56
53116,-0.13,-0.60,9.41,27.56
53133,-0.14,-0.64,9.45,27.46
53151,-0.13,-0.65,9.43,27.55
53167,-0.16,-0.66,9.42,27.46
53183,-0.16,-0.63,9.39,27.56
53201,-0.14,-0.64,9.42,27.46
53217,-0.14,-0.63,9.46,27.46
53233,-0.14,-0.62,9.45,27.56
53252,-0.13,-0.61,9.42,27.46
53267,-0.15,-0.63,9.42,27.46
53284,-0.16,-0.66,9.46,27.56
53302,-0.15,-0.62,9.42,27.46
53317,-0.14,-0.64,9.45,27.46
53335,-0.14,-0.63,9.41,27.46
53352,-0.14,-0.64,9.41,27.44
53367,-0.13,-0.62,9.44,27.56
53385,-0.14,-0.63,9.41,27.46
53402,-0.15,-0.63,9.40,27.46
53417,-0.17,-0.65,9.43,27.56
53435,-0.15,-0.63,9.42,27.46
53452,-0.16,-0.65,9.39,27.48
53468,-0.17,-0.65,9.41,27.56
53485,-0.17,-0.64,9.48,27.46
53502,-0.15,-0.64,9.39,27.56
53519,-0.15,-0.61,9.44,27.56
53535,-0.13,-0.63,9.41,27.44
53553,-0.15,-0.61,9.40,27.56
53569,-0.15,-0.64,9.43,27.44
53585,-0.13,-0.63,9.43,27.56
53604,-0.16,-0.64,9.41,27.56
53619,-0.14,-0.63,9.41,27.46
53636,-0.13,-0.63,9.43,27.56
53654,-0.14,-0.60,9.45,27.46
53669,-0.16,-0.65,9.44,27.46
53687,-0.15,-0.63,9.43,27.56
53704,-0.14,-0.60,9.44,27.46
53720,-0.15,-0.62,9.43,27.46
53737,-0.13,-0.63,9.44,27.46
53754,-0.15,-0.63,9.39,27.46
53770,-0.15,-0.64,9.43,27.56
53787,-0.14,-0.64,9.41,27.46
53805,-0.15,-0.60,9.40,27.46
53820,-0.16,-0.63,9.45,27.56
53837,-0.13,-0.62,9.44,27.44
53855,-0.16,-0.62,9.43,27.56
53871,-0.15,-0.64,9.43,27.55
53888,-0.17,-0.64,9.46,27.44
53905,-0.15,-0.64,9.42,27.56
53921,-0.14,-0.62,9.46,27.56
53938,-0.14,-0.65,9.44,27.44
53955,-0.15,-0.62,9.39,27.56
53971,-0.13,-0.62,9.45,27.46
53988,-0.13,-0.62,9.42,27.56
54006,-0.13,-0.63,9.43,27.56
54022,-0.15,-0.64,9.42,27.46
54038,-0.16,-0.64,9.42,27.56
54056,-0.13,-0.62,9.41,27.46
54072,-0.14,-0.63,9.44,27.46
54089,-0.13,-0.64,9.44,27.56
54107,-0.15,-0.63,9.43,27.46
54122,-0.13,-0.63,9.43,27.55
54139,-0.14,-0.63,9.46,27.46
54157,-0.16,-0.63,9.42,27.46
54172,-0.13,-0.64,9.45,27.56
54190,-0.12,-0.62,9.44,27.46
54207,-0.13,-0.65,9.38,27.46
54222,-0.13,-0.63,9.47,27.56
54240,-0.17,-0.63,9.39,27.46
54257,-0.15,-0.62,9.41,27.56
54274,-0.14,-0.62,9.43,27.55
54290,-0.14,-0.64,9.44,27.46
54307,-0.13,-0.65,9.43,27.56
54324,-0.15,-0.61,9.41,27.55
54340,-0.15,-0.63,9.44,27.46
54358,-0.16,-0.64,9.44,27.55
54374,-0.11,-0.63,9.42,27.46
54390,-0.15,-0.64,9.46,27.56
54409,-0.15,-0.62,9.44,27.55
54424,-0.14,-0.65,9.42,27.46
54440,-0.14,-0.64,9.45,27.56
54459,-0.14,-0.63,9.44,27.46
54474,-0.15,-0.64,9.44,27.46
54492,-0.15,-0.63,9.42,27.56
54509,-0.14,-0.64,9.39,27.46
54524,-0.16,-0.64,9.46,27.44
54542,-0.13,-0.64,9.49,27.44
54559,-0.15,-0.62,9.42,27.46
54575,-0.15,-0.64,9.45,27.56
54592,-0.16,-0.64,9.43,27.46
54609,-0.14,-0.63,9.42,27.46
54625,-0.14,-0.63,9.42,27.56
54642,-0.14,-0.63,9.40,27.44
54660,-0.13,-0.64,9.40,27.56
54676,-0.17,-0.63,9.44,27.56
54692,-0.14,-0.64,9.44,27.44
54710,-0.14,-0.63,9.40,27.56
54726,-0.15,-0.62,9.44,27.56
54743,-0.14,-0.65,9.46,27.44
54760,-0.15,-0.65,9.44,27.56
54776,-0.15,-0.62,9.43,27.46
54793,-0.15,-0.62,9.40,27.56
54811,-0.13,-0.64,9.43,27.56
54827,-0.14,-0.60,9.42,27.46
54843,-0.15,-0.63,9.41,27.56
54861,-0.13,-0.62,9.41,27.46
54877,-0.14,-0.63,9.43,27.46
54894,-0.15,-0.63,9.43,27.56
54912,-0.14,-0.61,9.42,27.46
54927,-0.14,-0.64,9.45,27.46
54944,-0.13,-0.64,9.44,27.46
54962,-0.15,-0.65,9.40,27.46
54977,-0.14,-0.63,9.44,27.56
54994,-0.16,-0.63,9.43,27.46
55012,-0.14,-0.67,9.42,27.46
55027,-0.15,-0.63,9.44,27.56
55045,-0.14,-0.63,9.43,27.46
55062,-0.13,-0.62,9.43,27.56
55077,-0.13,-0.61,9.45,27.56
55095,-0.15,-0.64,9.46,27.46
55112,-0.14,-0.64,9.44,27.56
55129,-0.13,-0.65,9.46,27.46
55145,-0.12,-0.63,9.43,27.56
55163,-0.16,-0.64,9.42,27.56
55179,-0.15,-0.65,9.42,27.46
55195,-0.13,-0.64,9.45,27.56
55214,-0.15,-0.63,9.41,27.55
55229,-0.13,-0.63,9.43,27.46
55245,-0.14,-0.63,9.43,27.56
55264,-0.14,-0.62,9.39,27.46
55279,-0.14,-0.62,9.42,27.46
55297,-0.14,-0.64,9.40,27.46
55314,-0.13,-0.64,9.40,27.46
55329,-0.14,-0.62,9.43,27.56
55347,-0.15,-0.63,9.44,27.44
55364,-0.14,-0.62,9.40,27.46
55379,-0.14,-0.63,9.43,27.56
55397,-0.15,-0.62,9.44,27.46
55414,-0.14,-0.62,9.42,27.56
55431,-0.16,-0.62,9.45,27.55
55447,-0.16,-0.64,9.44,27.46
55464,-0.15,-0.64,9.42,27.55
55481,-0.16,-0.63,9.42,27.56
55497,-0.15,-0.65,9.45,27.46
55515,-0.17,-0.63,9.44,27.56
55531,-0.15,-0.63,9.42,27.44
55547,-0.14,-0.61,9.43,27.55
55566,-0.15,-0.64,9.43,27.56
55581,-0.15,-0.63,9.42,27.46
55598,-0.14,-0.65,9.43,27.56
55616,-0.13,-0.62,9.42,27.56
55631,-0.13,-0.64,9.43,27.46
55648,-0.14,-0.60,9.44,27.56
55666,-0.14,-0.63,9.41,27.44
55682,-0.14,-0.61,9.43,27.46
55699,-0.15,-0.65,9.44,27.56
55716,-0.16,-0.63,9.43,27.46
55732,-0.12,-0.60,9.42,27.56
55749,-0.16,-0.61,9.45,27.44
55767,-0.15,-0.63,9.44,27.44
55782,-0.17,-0.62,9.40,27.56
55799,-0.14,-0.65,9.42,27.46
55817,-0.15,-0.62,9.39,27.56
55833,-0.12,-0.62,9.43,27.56
55849,-0.14,-0.62,9.41,27.46
55867,-0.15,-0.63,9.44,27.56
55883,-0.15,-0.65,9.46,27.56
55900,-0.13,-0.63,9.45,27.46
55917,-0.14,-0.65,9.41,27.56
55933,-0.14,-0.63,9.44,27.46
55950,-0.14,-0.62,9.45,27.56
55968,-0.15,-0.63,9.42,27.56
55984,-0.16,-0.63,9.45,27.44
56000,-0.15,-0.65,9.44,27.56
56018,-0.14,-0.63,9.45,27.46
56034,-0.13,-0.62,9.44,27.44
56051,-0.15,-0.63,9.42,27.56
56069,-0.16,-0.66,9.42,27.46
56084,-0.14,-0.63,9.43,27.56
56101,-0.15,-0.66,9.44,27.44
56119,-0.14,-0.65,9.43,27.46
56134,-0.15,-0.63,9.43,27.55
56152,-0.13,-0.65,9.38,27.44
56169,-0.13,-0.62,9.43,27.46
56184,-0.16,-0.65,9.46,27.56
56202,-0.16,-0.61,9.45,27.46
56219,-0.13,-0.61,9.41,27.56
56236,-0.13,-0.63,9.41,27.55
56252,-0.13,-0.62,9.42,27.46
56269,-0.15,-0.63,9.41,27.56
56286,-0.13,-0.62,9.46,27.46
56302,-0.13,-0.65,9.46,27.56
56321,-0.14,-0.65,9.43,27.55
56336,-0.14,-0.63,9.41,27.46
56352,-0.14,-0.63,9.45,27.55
56371,-0.11,-0.64,9.43,27.46
56386,-0.14,-0.64,9.42,27.46
56402,-0.13,-0.63,9.41,27.56
56421,-0.15,-0.62,9.42,27.46
56436,-0.14,-0.64,9.44,27.44
56454,-0.14,-0.62,9.47,27.55
56471,-0.13,-0.66,9.44,27.46
56486,-0.12,-0.65,9.42,27.46
56504,-0.14,-0.62,9.41,27.46
56521,-0.14,-0.63,9.40,27.46
56537,-0.14,-0.63,9.41,27.56
56554,-0.15,-0.65,9.43,27.46
56571,-0.13,-0.60,9.43,27.46
56587,-0.15,-0.64,9.43,27.56
56604,-0.12,-0.61,9.42,27.46
56622,-0.15,-0.63,9.41,27.56
56638,-0.16,-0.63,9.43,27.55
56654,-0.17,-0.65,9.43,27.46
56672,-0.15,-0.62,9.41,27.56
56688,-0.14,-0.65,9.44,27.46
56705,-0.17,-0.64,9.43,27.56
56723,-0.14,-0.65,9.43,27.56
56738,-0.14,-0.62,9.43,27.44
56755,-0.15,-0.63,9.42,27.56
56773,-0.14,-0.66,9.40,27.56
56788,-0.16,-0.65,9.40,27.46
56805,-0.13,-0.63,9.44,27.56
56823,-0.14,-0.62,9.42,27.46
56839,-0.14,-0.67,9.44,27.44
56856,-0.14,-0.64,9.44,27.56
56873,-0.14,-0.66,9.42,27.44
56889,-0.13,-0.62,9.43,27.56
56906,-0.15,-0.63,9.43,27.46
56924,-0.13,-0.62,9.41,27.46
56939,-0.15,-0.66,9.43,27.56
56956,-0.14,-0.63,9.41,27.46
56974,-0.14,-0.64,9.43,27.44
56989,-0.14,-0.63,9.42,27.56
57007,-0.14,-0.66,9.43,27.44
57024,-0.16,-0.60,9.39,27.56
57040,-0.12,-0.63,9.45,27.56
57057,-0.15,-0.63,9.43,27.44
57074,-0.15,-0.63,9.42,27.55
57091,-0.13,-0.62,9.45,27.46
57107,-0.14,-0.64,9.43,27.56
57125,-0.14,-0.62,9.44,27.46
57141,-0.16,-0.65,9.44,27.46
57157,-0.15,-0.61,9.42,27.56
57176,-0.15,-0.64,9.42,27.44
57191,-0.13,-0.66,9.47,27.44
57208,-0.15,-0.64,9.43,27.56
57226,-0.15,-0.64,9.42,27.44
57241,-0.12,-0.64,9.44,27.44
57259,-0.11,-0.63,9.43,27.46
57276,-0.12,-0.64,9.40,27.46
57291,-0.13,-0.63,9.42,27.55
57309,-0.15,-0.62,9.45,27.44
57326,-0.15,-0.63,9.44,27.46
57341,-0.15,-0.67,9.41,27.56
57359,-0.13,-0.64,9.44,27.46
57376,-0.14,-0.62,9.42,27.44
57392,-0.13,-0.60,9.45,27.56
57409,-0.13,-0.64,9.42,27.46
57426,-0.15,-0.62,9.43,27.56
57443,-0.15,-0.65,9.45,27.56
57459,-0.14,-0.64,9.43,27.44
57478,-0.14,-0.65,9.40,27.56
57493,-0.13,-0.62,9.43,27.44
57509,-0.15,-0.62,9.43,27.56
57528,-0.12,-0.61,9.41,27.46
57543,-0.14,-0.65,9.43,27.46
57560,-0.14,-0.65,9.43,27.56
57578,-0.14,-0.65,9.42,27.46
57593,-0.13,-0.64,9.43,27.46
57611,-0.14,-0.62,9.40,27.56
57628,-0.15,-0.61,9.42,27.46
57644,-0.16,-0.63,9.44,27.44
57661,-0.15,-0.65,9.39,27.44
57678,-0.15,-0.66,9.41,27.44
57694,-0.15,-0.63,9.40,27.56
57711,-0.13,-0.61,9.42,27.46
57729,-0.13,-0.63,9.41,27.44
57744,-0.14,-0.63,9.45,27.56
57761,-0.12,-0.64,9.44,27.46
57779,-0.15,-0.63,9.40,27.55
57795,-0.15,-0.62,9.43,27.55
57811,-0.15,-0.64,9.42,27.44
57829,-0.14,-0.62,9.44,27.56
57845,-0.15,-0.64,9.43,27.46
57862,-0.17,-0.65,9.42,27.56
57880,-0.14,-0.67,9.43,27.56
57895,-0.15,-0.64,9.42,27.46
57912,-0.13,-0.64,9.43,27.55
57930,-0.13,-0.62,9.42,27.44
57946,-0.16,-0.63,9.47,27.44
57962,-0.16,-0.64,9.43,27.56
57980,-0.14,-0.65,9.40,27.46
57996,-0.14,-0.63,9.47,27.44
58013,-0.13,-0.62,9.44,27.55
58031,-0.13,-0.64,9.42,27.46
58046,-0.13,-0.63,9.42,27.46
58063,-0.15,-0.64,9.44,27.46
58081,-0.13,-0.64,9.40,27.46
58096,-0.14,-0.63,9.41,27.56
58114,-0.15,-0.64,9.44,27.46
58131,-0.14,-0.64,9.44,27.53
58146,-0.15,-0.63,9.44,27.55
58164,-0.14,-0.61,9.40,27.46
58181,-0.13,-0.64,9.41,27.56
58198,-0.17,-0.65,9.45,27.56
58214,-0.16,-0.66,9.44,27.44
58231,-0.15,-0.65,9.43,27.56
58248,-0.15,-0.63,9.42,27.46
58264,-0.13,-0.63,9.48,27.56
58283,-0.13,-0.62,9.43,27.56
58298,-0.13,-0.63,9.43,27.46
58314,-0.15,-0.64,9.46,27.56
58333,-0.13,-0.66,9.45,27.46
58348,-0.13,-0.62,9.43,27.44
58364,-0.16,-0.62,9.42,27.56
58383,-0.15,-0.61,9.42,27.46
58398,-0.13,-0.63,9.43,27.46
58416,-0.16,-0.61,9.45,27.55
58433,-0.13,-0.63,9.39,27.46
58448,-0.15,-0.65,9.44,27.46
58466,-0.14,-0.62,9.43,27.46
58483,-0.14,-0.63,9.37,27.46
58499,-0.14,-0.65,9.45,27.56
58516,-0.14,-0.64,9.42,27.46
58533,-0.16,-0.62,9.39,27.44
58549,-0.14,-0.63,9.41,27.56
58566,-0.13,-0.62,9.42,27.46
58584,-0.14,-0.62,9.41,27.56
58600,-0.14,-0.63,9.43,27.49
58616,-0.14,-0.64,9.41,27.44
58634,-0.15,-0.61,9.40,27.56
58650,-0.16,-0.64,9.43,27.46
58667,-0.16,-0.65,9.44,27.55
58685,-0.16,-0.63,9.40,27.56
58700,-0.16,-0.64,9.44,27.44
58717,-0.15,-0.63,9.45,27.56
58735,-0.14,-0.63,9.43,27.46
58750,-0.13,-0.63,9.43,27.46
58767,-0.14,-0.63,9.44,27.56
58785,-0.13,-0.63,9.38,27.46
58801,-0.13,-0.65,9.45,27.44
58818,-0.13,-0.61,9.42,27.56
58835,-0.13,-0.63,9.44,27.44
58851,-0.15,-0.62,9.39,27.46
58868,-0.16,-0.63,9.45,27.44
58886,-0.15,-0.65,9.41,27.44
58901,-0.16,-0.64,9.44,27.56
58918,-0.16,-0.63,9.46,27.44
58936,-0.13,-0.62,9.42,27.46
58951,-0.13,-0.64,9.44,27.56
58969,-0.13,-0.61,9.46,27.46
58986,-0.13,-0.62,9.40,27.56
59002,-0.15,-0.64,9.43,27.56
59019,-0.14,-0.63,9.44,27.46
59036,-0.14,-0.64,9.45,27.55
59053,-0.15,-0.65,9.46,27.56
59069,-0.15,-0.61,9.44,27.51
59087,-0.14,-0.63,9.41,27.56
59103,-0.13,-0.63,9.44,27.46
59119,-0.15,-0.63,9.42,27.56
59138,-0.14,-0.63,9.43,27.46
59153,-0.13,-0.64,9.45,27.44
59170,-0.14,-0.62,9.46,27.56
59188,-0.16,-0.64,9.39,27.46
59203,-0.14,-0.61,9.44,27.46
59220,-0.13,-0.64,9.42,27.46
59238,-0.15,-0.63,9.43,27.46
59253,-0.13,-0.64,9.44,27.56
59271,-0.15,-0.62,9.44,27.46
59288,-0.14,-0.63,9.41,27.46
59303,-0.13,-0.64,9.42,27.56
59321,-0.13,-0.64,9.43,27.44
59338,-0.13,-0.63,9.40,27.46
59354,-0.13,-0.63,9.41,27.56
59371,-0.16,-0.63,9.44,27.46
59388,-0.14,-0.63,9.46,27.56
59405,-0.15,-0.62,9.44,27.56
59421,-0.15,-0.65,9.41,27.44
59439,-0.14,-0.63,9.39,27.56
59455,-0.15,-0.61,9.44,27.44
59471,-0.14,-0.64,9.45,27.56
59490,-0.12,-0.60,9.39,27.56
59505,-0.13,-0.63,9.45,27.46
59522,-0.15,-0.64,9.45,27.56
59540,-0.15,-0.63,9.43,27.46
59555,-0.15,-0.62,9.43,27.46
59572,-0.15,-0.62,9.44,27.56
59590,-0.14,-0.64,9.41,27.46
59606,-0.15,-0.61,9.41,27.44
59623,-0.13,-0.62,9.41,27.56
59640,-0.15,-0.63,9.42,27.46
59656,-0.15,-0.64,9.43,27.46
59673,-0.14,-0.61,9.44,27.46
59691,-0.13,-0.62,9.43,27.46
59706,-0.15,-0.63,9.43,27.56
59723,-0.14,-0.63,9.43,27.44
59741,-0.14,-0.61,9.42,27.44
59756,-0.14,-0.64,9.40,27.56
59773,-0.13,-0.63,9.44,27.46
59791,-0.12,-0.64,9.42,27.56
59807,-0.14,-0.61,9.44,27.56
59824,-0.14,-0.65,9.44,27.46
59841,-0.15,-0.65,9.40,27.55
59857,-0.14,-0.60,9.46,27.56
59874,-0.16,-0.65,9.46,27.46
59891,-0.14,-0.63,9.41,27.56
59908,-0.14,-0.62,9.43,27.44
59924,-0.14,-0.63,9.43,27.56
59942,-0.13,-0.62,9.43,27.56
59958,-0.16,-0.62,9.42,27.46
59974,-0.15,-0.63,9.43,27.56
59993,-0.16,-0.62,9.42,27.44
60008,-0.13,-0.65,9.45,27.44
60025,-0.16,-0.63,9.42,27.56
60043,-0.15,-0.60,9.43,27.46
60058,-0.14,-0.63,9.42,27.46
60076,-0.16,-0.62,9.42,27.46
60093,-0.16,-0.64,9.43,27.46
60108,-0.13,-0.61,9.44,27.56
60126,-0.14,-0.62,9.42,27.44
60143,-0.13,-0.60,9.42,27.46
60158,-0.14,-0.64,9.41,27.56
60176,-0.14,-0.65,9.43,27.46
60193,-0.16,-0.63,9.41,27.56
60210,-0.13,-0.64,9.42,27.56
60226,-0.14,-0.64,9.43,27.46
60243,-0.16,-0.63,9.41,27.55
60260,-0.14,-0.63,9.42,27.46
60276,-0.15,-0.67,9.46,27.56
60295,-0.15,-0.63,9.41,27.56
60310,-0.15,-0.63,9.43,27.44
60326,-0.14,-0.62,9.40,27.56
60345,-0.14,-0.64,9.40,27.46
60360,-0.15,-0.63,9.44,27.46
60378,-0.16,-0.62,9.42,27.56
60395,-0.17,-0.63,9.42,27.46
60410,-0.13,-0.64,9.42,27.46
60428,-0.14,-0.61,9.42,27.51
60445,-0.13,-0.63,9.42,27.46
60461,-0.16,-0.64,9.45,27.56
60478,-0.16,-0.64,9.43,27.44
60495,-0.15,-0.61,9.39,27.46
60511,-0.14,-0.64,9.41,27.55
60528,-0.12,-0.62,9.44,27.46
60546,-0.15,-0.64,9.39,27.46
60561,-0.16,-0.64,9.45,27.56
60578,-0.15,-0.63,9.43,27.46
60596,-0.14,-0.63,9.42,27.56
60612,-0.14,-0.65,9.40,27.55
60628,-0.14,-0.63,9.44,27.44
60646,-0.15,-0.62,9.45,27.56
60662,-0.15,-0.65,9.40,27.46
60679,-0.14,-0.63,9.44,27.56
60697,-0.16,-0.62,9.42,27.56
60712,-0.14,-0.63,9.45,27.44
60729,-0.16,-0.61,9.46,27.55
60747,-0.15,-0.61,9.44,27.46
60763,-0.15,-0.60,9.44,27.46
60780,-0.16,-0.62,9.42,27.56
60797,-0.15,-0.61,9.40,27.46
60813,-0.14,-0.63,9.45,27.46
60830,-0.15,-0.65,9.41,27.56
60848,-0.14,-0.63,9.43,27.46
60863,-0.15,-0.62,9.44,27.48
60880,-0.14,-0.64,9.46,27.46
60898,-0.15,-0.65,9.42,27.46
60913,-0.16,-0.63,9.44,27.56
60931,-0.14,-0.63,9.39,27.46
60948,-0.13,-0.62,9.40,27.46
60963,-0.14,-0.65,9.43,27.56
60981,-0.15,-0.64,9.43,27.46
60998,-0.15,-0.65,9.41,27.56
61015,-0.14,-0.64,9.42,27.56
61031,-0.14,-0.64,9.41,27.46
61048,-0.15,-0.62,9.41,27.56
61065,-0.13,-0.63,9.44,27.46
61081,-0.14,-0.62,9.42,27.56
61100,-0.15,-0.63,9.42,27.55
61115,-0.15,-0.63,9.46,27.46
61131,-0.16,-0.65,9.43,27.56
61150,-0.14,-0.64,9.40,27.46
61165,-0.14,-0.64,9.42,27.46
61182,-0.13,-0.63,9.46,27.56
61200,-0.14,-0.61,9.41,27.46
61215,-0.15,-0.61,9.46,27.46
61233,-0.14,-0.63,9.40,27.46
61250,-0.13,-0.66,9.41,27.46
61265,-0.14,-0.62,9.45,27.56
61283,-0.16,-0.64,9.42,27.44
61300,-0.14,-0.64,9.41,27.44
61316,-0.14,-0.64,9.44,27.55
61333,-0.14,-0.62,9.45,27.44
61350,-0.14,-0.63,9.43,27.56
61367,-0.15,-0.62,9.40,27.56
61383,-0.15,-0.60,9.46,27.46
61401,-0.13,-0.66,9.39,27.56
61417,-0.13,-0.62,9.43,27.56
61433,-0.15,-0.62,9.42,27.46
61451,-0.15,-0.64,9.44,27.56
61467,-0.15,-0.63,9.45,27.46
61484,-0.15,-0.64,9.46,27.56
61502,-0.15,-0.66,9.42,27.55
61517,-0.13,-0.64,9.42,27.46
61534,-0.16,-0.63,9.44,27.56
61552,-0.16,-0.63,9.42,27.46
61568,-0.14,-0.67,9.42,27.44
61585,-0.13,-0.63,9.45,27.56
61602,-0.15,-0.64,9.44,27.46
61618,-0.14,-0.61,9.42,27.44
61635,-0.15,-0.62,9.41,27.44
61652,-0.15,-0.62,9.42,27.46
61668,-0.14,-0.64,9.44,27.44
61685,-0.13,-0.61,9.42,27.46
61703,-0.14,-0.62,9.42,27.44
61718,-0.15,-0.62,9.46,27.56
61735,-0.14,-0.65,9.44,27.44
61753,-0.14,-0.63,9.40,27.56
61769,-0.15,-0.62,9.45,27.56
61786,-0.14,-0.64,9.41,27.46
61803,-0.13,-0.66,9.41,27.56
61819,-0.15,-0.63,9.44,27.56
61836,-0.14,-0.61,9.42,27.46
61853,-0.14,-0.62,9.41,27.56
61870,-0.14,-0.63,9.41,27.46
61886,-0.15,-0.62,9.43,27.56
61904,-0.14,-0.64,9.42,27.56
61920,-0.14,-0.62,9.43,27.46
61936,-0.15,-0.63,9.43,27.56
61955,-0.15,-0.64,9.45,27.44
61970,-0.14,-0.62,9.46,27.46
61987,-0.16,-0.64,9.40,27.56
62005,-0.14,-0.65,9.43,27.46
62020,-0.14,-0.63,9.44,27.44
62038,-0.13,-0.64,9.45,27.44
62055,-0.13,-0.64,9.41,27.46
62070,-0.15,-0.62,9.44,27.46
62088,-0.15,-0.63,9.42,27.46
62105,-0.16,-0.61,9.43,27.46
62120,-0.13,-0.62,9.46,27.56
62138,-0.13,-0.61,9.42,27.46
62155,-0.14,-0.65,9.41,27.56
62171,-0.14,-0.64,9.42,27.56
62188,-0.17,-0.62,9.47,27.46
62205,-0.16,-0.66,9.40,27.56
62222,-0.12,-0.62,9.44,27.44
62238,-0.15,-0.62,9.43,27.53
62257,-0.13,-0.63,9.41,27.56
62272,-0.13,-0.61,9.44,27.46
62288,-0.15,-0.63,9.43,27.56
62307,-0.15,-0.63,9.40,27.56
62322,-0.14,-0.64,9.46,27.46
62339,-0.13,-0.67,9.43,27.56
62357,-0.13,-0.64,9.39,27.46
62372,-0.14,-0.63,9.45,27.46
62390,-0.15,-0.63,9.44,27.56
62407,-0.14,-0.64,9.42,27.44
62423,-0.15,-0.63,9.44,27.44
62440,-0.13,-0.62,9.45,27.46
62457,-0.14,-0.65,9.40,27.46
62473,-0.16,-0.61,9.44,27.44
62490,-0.13,-0.63,9.43,27.46
62508,-0.14,-0.65,9.39,27.44
62523,-0.15,-0.64,9.43,27.56
62540,-0.14,-0.62,9.41,27.46
62558,-0.15,-0.62,9.43,27.56
62573,-0.17,-0.63,9.44,27.56
62590,-0.14,-0.63,9.44,27.46
62608,-0.14,-0.64,9.40,27.56
62624,-0.15,-0.63,9.43,27.56
62641,-0.15,-0.62,9.42,27.46
62659,-0.15,-0.65,9.42,27.56
62674,-0.15,-0.62,9.48,27.44
62691,-0.13,-0.61,9.43,27.56
62709,-0.15,-0.62,9.45,27.56
62725,-0.15,-0.61,9.44,27.46
62741,-0.12,-0.64,9.44,27.55
62759,-0.15,-0.65,9.42,27.46
62775,-0.13,-0.62,9.44,27.46
62792,-0.14,-0.62,9.43,27.56
62810,-0.15,-0.64,9.44,27.46
62825,-0.16,-0.64,9.42,27.44
62842,-0.15,-0.65,9.41,27.46
62860,-0.14,-0.64,9.40,27.46
62875,-0.14,-0.63,9.44,27.56
62893,-0.15,-0.63,9.42,27.46
62910,-0.16,-0.66,9.40,27.46
62925,-0.16,-0.62,9.43,27.56
62943,-0.16,-0.64,9.42,27.46
62960,-0.15,-0.65,9.40,27.56
62977,-0.14,-0.65,9.43,27.56
62993,-0.13,-0.63,9.45,27.46
63010,-0.15,-0.63,9.43,27.56
63027,-0.15,-0.64,9.43,27.46
63043,-0.15,-0.65,9.44,27.55
63062,-0.16,-0.63,9.42,27.56
63077,-0.13,-0.62,9.43,27.46
63093,-0.15,-0.62,9.42,27.56
63112,-0.13,-0.61,9.41,27.56
63127,-0.13,-0.64,9.45,27.46
63143,-0.14,-0.65,9.45,27.56
63162,-0.15,-0.65,9.45,27.46
63177,-0.15,-0.62,9.45,27.44
63195,-0.15,-0.62,9.42,27.56
63212,-0.13,-0.64,9.44,27.46
63227,-0.16,-0.63,9.45,27.46
63245,-0.15,-0.62,9.49,27.46
63262,-0.15,-0.62,9.45,27.46
63278,-0.13,-0.64,9.44,27.56
63295,-0.16,-0.66,9.44,27.44
63312,-0.15,-0.63,9.42,27.46
63328,-0.14,-0.63,9.43,27.56
63345,-0.11,-0.63,9.44,27.46
63363,-0.13,-0.62,9.39,27.46
63378,-0.14,-0.64,9.43,27.56
63395,-0.14,-0.61,9.45,27.46
63413,-0.12,-0.63,9.43,27.56
63429,-0.15,-0.65,9.41,27.56
63446,-0.16,-0.64,9.43,27.46
63463,-0.15,-0.65,9.40,27.56
63479,-0.16,-0.63,9.43,27.46
63496,-0.14,-0.64,9.43,27.56
63514,-0.13,-0.63,9.42,27.46
63529,-0.16,-0.62,9.43,27.46
63547,-0.14,-0.61,9.43,27.56
63564,-0.14,-0.64,9.40,27.46
63580,-0.14,-0.65,9.45,27.46
63597,-0.16,-0.64,9.43,27.48
63614,-0.14,-0.62,9.43,27.46
63630,-0.14,-0.67,9.43,27.44
63647,-0.15,-0.62,9.44,27.44
63665,-0.14,-0.65,9.44,27.46
63680,-0.14,-0.63,9.41,27.55
63697,-0.16,-0.62,9.43,27.46
63715,-0.14,-0.64,9.43,27.56
63731,-0.16,-0.63,9.44,27.56
63748,-0.14,-0.62,9.43,27.44
63765,-0.12,-0.64,9.42,27.56
63781,-0.14,-0.61,9.44,27.56
63798,-0.16,-0.61,9.40,27.46
63815,-0.14,-0.65,9.41,27.56
63832,-0.13,-0.63,9.43,27.46
63848,-0.13,-0.64,9.43,27.56
63866,-0.14,-0.62,9.40,27.56
63882,-0.15,-0.63,9.46,27.46
63898,-0.15,-0.64,9.44,27.56
63917,-0.15,-0.62,9.40,27.46
63932,-0.14,-0.63,9.44,27.46
63948,-0.15,-0.62,9.43,27.56
63967,-0.13,-0.62,9.40,27.46
63982,-0.15,-0.67,9.41,27.46
64000,-0.14,-0.62,9.43,27.56
64017,-0.14,-0.65,9.42,27.46
64032,-0.15,-0.63,9.45,27.46
64050,-0.14,-0.63,9.42,27.46
64067,-0.14,-0.64,9.42,27.46
64082,-0.13,-0.62,9.45,27.56
64100,-0.16,-0.65,9.44,27.46
64117,-0.14,-0.64,9.43,27.46
64133,-0.15,-0.62,9.46,27.55
64150,-0.13,-0.60,9.45,27.46
64167,-0.14,-0.62,9.40,27.56
64184,-0.15,-0.62,9.41,27.51
64200,-0.15,-0.63,9.43,27.46
64218,-0.14,-0.65,9.39,27.56
64234,-0.15,-0.61,9.44,27.46
64250,-0.13,-0.64,9.45,27.56
64269,-0.14,-0.63,9.44,27.56
64284,-0.16,-0.63,9.43,27.44
64301,-0.15,-0.62,9.39,27.56
64319,-0.14,-0.61,9.40,27.46
64334,-0.15,-0.63,9.42,27.44
64352,-0.13,-0.65,9.43,27.56
64369,-0.16,-0.65,9.43,27.46
64385,-0.13,-0.62,9.44,27.44
64402,-0.14,-0.65,9.46,27.46
64419,-0.13,-0.63,9.38,27.46
64435,-0.14,-0.63,9.41,27.46
64452,-0.14,-0.64,9.44,27.46
64470,-0.15,-0.62,9.46,27.44
64485,-0.14,-0.64,9.43,27.56
64502,-0.15,-0.63,9.42,27.46
64520,-0.15,-0.66,9.43,27.46
64535,-0.13,-0.62,9.43,27.56
64552,-0.13,-0.64,9.43,27.46
64570,-0.14,-0.65,9.43,27.56
64586,-0.15,-0.66,9.47,27.56
64603,-0.12,-0.63,9.41,27.46
64620,-0.14,-0.65,9.38,27.56
64636,-0.14,-0.62,9.42,27.46
64653,-0.15,-0.65,9.45,27.56
64670,-0.14,-0.67,9.45,27.56
64687,-0.15,-0.63,9.45,27.46
64703,-0.15,-0.63,9.43,27.56
64721,-0.13,-0.64,9.41,27.46
64737,-0.14,-0.66,9.44,27.46
64754,-0.14,-0.65,9.42,27.56
64772,-0.16,-0.61,9.40,27.46
64787,-0.13,-0.63,9.42,27.46
64804,-0.15,-0.63,9.46,27.46
64822,-0.16,-0.64,9.42,27.44
64837,-0.13,-0.66,9.45,27.56
64855,-0.16,-0.62,9.41,27.44
64872,-0.15,-0.63,9.41,27.44
64887,-0.14,-0.61,9.37,27.56
64905,-0.14,-0.64,9.46,27.46
64922,-0.11,-0.65,9.42,27.56
64939,-0.15,-0.64,9.42,27.56
64955,-0.15,-0.61,9.42,27.44
64972,-0.14,-0.63,9.41,27.55
64989,-0.15,-0.61,9.45,27.56
65005,-0.14,-0.64,9.44,27.46
65022,-0.14,-0.63,9.43,27.55
65039,-0.13,-0.63,9.45,27.46
65055,-0.15,-0.63,9.43,27.55
65074,-0.15,-0.65,9.44,27.56
65089,-0.15,-0.63,9.47,27.46
65105,-0.14,-0.65,9.47,27.56
65124,-0.14,-0.62,9.40,27.44
65139,-0.14,-0.62,9.43,27.44
65157,-0.15,-0.62,9.45,27.56
65174,-0.13,-0.63,9.40,27.46
65189,-0.15,-0.60,9.42,27.44
65207,-0.14,-0.66,9.42,27.44
65224,-0.15,-0.65,9.41,27.46
65240,-0.16,-0.63,9.44,27.56
65257,-0.15,-0.62,9.43,27.46
65274,-0.16,-0.63,9.41,27.46
65290,-0.16,-0.64,9.44,27.56
65307,-0.15,-0.65,9.44,27.44
65325,-0.14,-0.63,9.43,27.55
65341,-0.15,-0.64,9.45,27.55
65357,-0.12,-0.62,9.43,27.46
65375,-0.14,-0.62,9.40,27.55
65391,-0.14,-0.65,9.42,27.44
65408,-0.14,-0.66,9.42,27.46
65425,-0.15,-0.63,9.40,27.56
65441,-0.13,-0.64,9.41,27.46
65458,-0.15,-0.62,9.41,27.55
65476,-0.14,-0.63,9.40,27.56
65491,-0.14,-0.63,9.44,27.44
65508,-0.15,-0.62,9.42,27.56
65526,-0.15,-0.64,9.42,27.46
65542,-0.12,-0.63,9.46,27.44
65559,-0.15,-0.62,9.43,27.55
65576,-0.15,-0.64,9.42,27.46
65592,-0.14,-0.63,9.45,27.46
65609,-0.12,-0.63,9.44,27.46
65627,-0.11,-0.63,9.43,27.46
65642,-0.13,-0.65,9.44,27.56
65659,-0.14,-0.64,9.44,27.44
65677,-0.14,-0.63,9.43,27.44
65692,-0.13,-0.62,9.43,27.56
65710,-0.14,-0.62,9.43,27.44
65727,-0.14,-0.63,9.43,27.46
65742,-0.15,-0.64,9.42,27.55
65760,-0.14,-0.62,9.45,27.46
65777,-0.15,-0.65,9.43,27.56
65794,-0.15,-0.64,9.42,27.56
65810,-0.13,-0.67,9.41,27.46
65827,-0.16,-0.62,9.40,27.55
65844,-0.15,-0.62,9.42,27.48
65860,-0.15,-0.63,9.46,27.44
65878,-0.16,-0.63,9.41,27.55
65894,-0.14,-0.62,9.40,27.46
65910,-0.12,-0.61,9.41,27.55
65929,-0.15,-0.61,9.41,27.56
65944,-0.15,-0.64,9.44,27.46
65960,-0.14,-0.64,9.41,27.55
65979,-0.13,-0.63,9.40,27.44
65994,-0.16,-0.62,9.43,27.44
66012,-0.14,-0.63,9.40,27.55
66029,-0.13,-0.64,9.42,27.46
66044,-0.14,-0.64,9.45,27.44
66062,-0.15,-0.64,9.41,27.46
66079,-0.13,-0.63,9.39,27.46
66095,-0.13,-0.64,9.40,27.56
66112,-0.15,-0.65,9.43,27.44
66129,-0.15,-0.66,9.43,27.46
66145,-0.14,-0.63,9.44,27.56
66162,-0.11,-0.63,9.43,27.46
66180,-0.12,-0.64,9.40,27.56
66196,-0.14,-0.65,9.41,27.56
66212,-0.14,-0.63,9.44,27.46
66230,-0.17,-0.61,9.40,27.56
66246,-0.15,-0.64,9.45,27.46
66263,-0.14,-0.62,9.46,27.46
66280,-0.13,-0.62,9.42,27.56
66296,-0.16,-0.63,9.43,27.46
66313,-0.13,-0.64,9.45,27.56
66331,-0.14,-0.63,9.43,27.55
66347,-0.14,-0.66,9.42,27.44
66363,-0.15,-0.61,9.44,27.56
66381,-0.16,-0.63,9.42,27.44
66397,-0.15,-0.64,9.43,27.46
66414,-0.16,-0.63,9.44,27.56
66432,-0.14,-0.63,9.42,27.46
66447,-0.14,-0.63,9.41,27.56
66464,-0.14,-0.64,9.42,27.46
66482,-0.14,-0.63,9.39,27.46
66497,-0.13,-0.64,9.41,27.56
66514,-0.13,-0.61,9.44,27.46
66532,-0.11,-0.62,9.42,27.46
66547,-0.13,-0.63,9.44,27.56
66565,-0.15,-0.63,9.42,27.46
66582,-0.13,-0.64,9.43,27.46
66597,-0.17,-0.63,9.45,27.56
66615,-0.16,-0.63,9.44,27.46
66632,-0.13,-0.60,9.42,27.56
66649,-0.16,-0.63,9.43,27.56
66665,-0.16,-0.62,9.43,27.46
66683,-0.13,-0.64,9.44,27.56
66699,-0.14,-0.65,9.42,27.44
66715,-0.16,-0.64,9.43,27.56
66734,-0.11,-0.64,9.40,27.46
66749,-0.14,-0.66,9.44,27.46
66766,-0.15,-0.59,9.45,27.56
66784,-0.13,-0.65,9.39,27.46
66799,-0.15,-0.63,9.44,27.46
66817,-0.15,-0.63,9.42,27.44
66834,-0.15,-0.63,9.43,27.44
66849,-0.15,-0.63,9.43,27.46
66867,-0.13,-0.64,9.44,27.44
66884,-0.13,-0.63,9.43,27.46
66899,-0.13,-0.65,9.44,27.55
66917,-0.15,-0.61,9.45,27.44
66934,-0.15,-0.61,9.43,27.46
66950,-0.17,-0.65,9.43,27.56
66967,-0.12,-0.62,9.42,27.46
66984,-0.14,-0.65,9.42,27.53
67000,-0.14,-0.65,9.45,27.56
67017,-0.15,-0.63,9.43,27.46
67035,-0.14,-0.62,9.42,27.56
67051,-0.13,-0.63,9.45,27.46
67067,-0.16,-0.62,9.42,27.55
67086,-0.15,-0.63,9.41,27.56
67101,-0.15,-0.65,9.45,27.46
67118,-0.14,-0.62,9.48,27.56
67136,-0.13,-0.64,9.44,27.46
67151,-0.16,-0.63,9.43,27.46
67168,-0.15,-0.65,9.44,27.56
67186,-0.14,-0.61,9.42,27.46
67202,-0.14,-0.64,9.44,27.44
67219,-0.15,-0.63,9.45,27.56
67236,-0.11,-0.63,9.42,27.46
67252,-0.17,-0.63,9.45,27.44
67269,-0.14,-0.63,9.44,27.46
67287,-0.15,-0.62,9.41,27.46
67302,-0.14,-0.61,9.40,27.56
67319,-0.15,-0.61,9.41,27.46
67337,-0.15,-0.64,9.41,27.44
67352,-0.16,-0.63,9.42,27.56
67369,-0.14,-0.63,9.41,27.46
67387,-0.14,-0.62,9.39,27.56
67403,-0.15,-0.63,9.45,27.56
67420,-0.14,-0.63,9.40,27.46
67437,-0.14,-0.63,9.42,27.56
67453,-0.13,-0.63,9.46,27.46
67470,-0.16,-0.64,9.42,27.56
67488,-0.14,-0.65,9.41,27.56
67504,-0.15,-0.64,9.43,27.46
67520,-0.15,-0.65,9.45,27.56
67538,-0.14,-0.63,9.42,27.46
67554,-0.14,-0.61,9.42,27.46
67570,-0.14,-0.63,9.44,27.55
67589,-0.15,-0.62,9.43,27.46
67604,-0.14,-0.63,9.43,27.46
67621,-0.14,-0.63,9.43,27.46
67639,-0.16,-0.63,9.39,27.44
67654,-0.15,-0.63,9.48,27.56
67672,-0.16,-0.63,9.44,27.44
67689,-0.15,-0.62,9.43,27.44
67704,-0.12,-0.64,9.46,27.56
67722,-0.14,-0.60,9.41,27.46
67739,-0.14,-0.64,9.42,27.46
67755,-0.13,-0.66,9.41,27.55
67772,-0.12,-0.66,9.44,27.46
67789,-0.14,-0.65,9.42,27.46
67805,-0.15,-0.61,9.44,27.55
67822,-0.15,-0.61,9.42,27.44
67840,-0.13,-0.64,9.42,27.55
67856,-0.14,-0.63,9.43,27.56
67872,-0.14,-0.63,9.45,27.44
67890,-0.15,-0.65,9.40,27.56
67906,-0.13,-0.64,9.42,27.46
67922,-0.15,-0.61,9.42,27.56
67941,-0.15,-0.64,9.43,27.55
67956,-0.16,-0.66,9.45,27.46
67973,-0.12,-0.63,9.42,27.56
67991,-0.15,-0.63,9.43,27.46
68006,-0.15,-0.61,9.45,27.44
68024,-0.14,-0.62,9.42,27.56
68041,-0.14,-0.64,9.40,27.46
68057,-0.13,-0.64,9.46,27.46
68074,-0.14,-0.63,9.44,27.46
68091,-0.15,-0.61,9.42,27.46
68107,-0.14,-0.62,9.44,27.44
68124,-0.14,-0.64,9.43,27.46
68142,-0.15,-0.63,9.40,27.46
68157,-0.15,-0.60,9.43,27.56
68174,-0.14,-0.64,9.46,27.46
68192,-0.14,-0.64,9.44,27.56
68208,-0.14,-0.62,9.41,27.56
68225,-0.14,-0.64,9.41,27.44
68242,-0.14,-0.62,9.42,27.56
68258,-0.14,-0.63,9.44,27.44
68275,-0.15,-0.61,9.44,27.46
68292,-0.13,-0.61,9.41,27.56
68308,-0.13,-0.62,9.40,27.44
68325,-0.13,-0.62,9.43,27.56
68343,-0.15,-0.61,9.42,27.46
68359,-0.15,-0.64,9.42,27.46
68375,-0.15,-0.66,9.46,27.56
68393,-0.14,-0.62,9.42,27.46
68409,-0.12,-0.62,9.43,27.46
68426,-0.15,-0.62,9.45,27.56
68444,-0.15,-0.64,9.44,27.46
68459,-0.15,-0.63,9.43,27.44
68476,-0.13,-0.62,9.40,27.46
68494,-0.15,-0.63,9.41,27.46
68509,-0.16,-0.62,9.44,27.56
68527,-0.14,-0.66,9.48,27.46
68544,-0.13,-0.63,9.42,27.46
68559,-0.15,-0.62,9.41,27.56
68577,-0.14,-0.61,9.44,27.44
68594,-0.13,-0.62,9.41,27.46
68610,-0.15,-0.61,9.47,27.56
68627,-0.14,-0.63,9.44,27.46
68644,-0.14,-0.64,9.40,27.55
68661,-0.14,-0.63,9.42,27.46
68677,-0.14,-0.65,9.44,27.46
68696,-0.14,-0.63,9.44,27.56
68711,-0.17,-0.65,9.46,27.46
68727,-0.15,-0.62,9.42,27.56
68746,-0.14,-0.65,9.43,27.53
68761,-0.13,-0.61,9.44,27.46
68777,-0.16,-0.62,9.46,27.55
68796,-0.14,-0.61,9.45,27.46
68811,-0.14,-0.65,9.41,27.46
68829,-0.12,-0.62,9.42,27.56
68846,-0.14,-0.64,9.43,27.46
68861,-0.14,-0.62,9.44,27.46
68879,-0.14,-0.63,9.43,27.46
68896,-0.14,-0.63,9.42,27.46
68912,-0.15,-0.61,9.41,27.56
68929,-0.15,-0.65,9.43,27.46
68946,-0.13,-0.63,9.41,27.46
68962,-0.15,-0.62,9.46,27.56
68979,-0.15,-0.65,9.41,27.44
68997,-0.15,-0.63,9.42,27.56
69013,-0.14,-0.64,9.41,27.56
69029,-0.14,-0.63,9.40,27.44
69047,-0.13,-0.62,9.39,27.56
69063,-0.15,-0.63,9.44,27.46
69080,-0.17,-0.62,9.46,27.55
69098,-0.13,-0.62,9.43,27.56
69113,-0.15,-0.65,9.45,27.46
69130,-0.14,-0.65,9.43,27.55
69148,-0.15,-0.63,9.41,27.44
69164,-0.13,-0.62,9.46,27.44
69180,-0.15,-0.65,9.43,27.56
69198,-0.13,-0.64,9.41,27.44
69214,-0.15,-0.62,9.42,27.44
69231,-0.15,-0.63,9.44,27.56
69249,-0.14,-0.63,9.39,27.44
69264,-0.14,-0.64,9.41,27.44
69281,-0.14,-0.63,9.41,27.44
69299,-0.15,-0.64,9.43,27.46
69314,-0.14,-0.62,9.44,27.56
69331,-0.15,-0.63,9.42,27.46
69349,-0.12,-0.64,9.42,27.46
69364,-0.14,-0.62,9.42,27.55
69382,-0.13,-0.62,9.41,27.46
69399,-0.14,-0.62,9.40,27.56
69415,-0.14,-0.64,9.43,27.55
69432,-0.15,-0.63,9.44,27.46
69449,-0.14,-0.65,9.40,27.56
69466,-0.17,-0.64,9.44,27.46
69482,-0.15,-0.62,9.40,27.56
69500,-0.14,-0.61,9.43,27.56
69516,-0.16,-0.64,9.43,27.46
69532,-0.16,-0.64,9.42,27.56
69551,-0.16,-0.63,9.44,27.49
69566,-0.14,-0.64,9.45,27.44
69582,-0.16,-0.65,9.46,27.56
69601,-0.15,-0.64,9.43,27.46
69616,-0.15,-0.61,9.44,27.46
69634,-0.14,-0.64,9.44,27.56
69651,-0.14,-0.62,9.43,27.46
69666,-0.15,-0.63,9.41,27.46
69684,-0.16,-0.64,9.44,27.46
69701,-0.14,-0.62,9.41,27.46
69716,-0.15,-0.66,9.46,27.56
69734,-0.16,-0.63,9.44,27.46
69751,-0.15,-0.64,9.41,27.46
69767,-0.15,-0.64,9.42,27.56
69784,-0.13,-0.64,9.45,27.46
69801,-0.15,-0.62,9.41,27.56
69818,-0.15,-0.62,9.42,27.56
69834,-0.15,-0.65,9.44,27.46
69852,-0.13,-0.64,9.42,27.56
69868,-0.12,-0.63,9.46,27.56
69884,-0.15,-0.65,9.43,27.46
69902,-0.14,-0.63,9.41,27.56
69918,-0.14,-0.63,9.40,27.46
69935,-0.14,-0.65,9.46,27.56
69953,-0.14,-0.64,9.41,27.56
69968,-0.15,-0.65,9.43,27.46
69985,-0.15,-0.62,9.45,27.56
70003,-0.15,-0.63,9.42,27.44
70019,-0.14,-0.66,9.42,27.46
70036,-0.15,-0.63,9.44,27.56
70053,-0.14,-0.66,9.42,27.44
70069,-0.15,-0.66,9.49,27.46
70086,-0.15,-0.63,9.44,27.44
70104,-0.16,-0.63,9.46,27.46
70119,-0.14,-0.67,9.46,27.46
70136,-0.12,-0.62,9.39,27.46
70154,-0.14,-0.63,9.45,27.44
70169,-0.15,-0.64,9.42,27.56
70187,-0.14,-0.63,9.46,27.44
70204,-0.14,-0.63,9.41,27.44
70219,-0.13,-0.63,9.43,27.56
70237,-0.15,-0.62,9.42,27.46
70254,-0.16,-0.64,9.38,27.56
70270,-0.17,-0.63,9.43,27.46
70287,-0.15,-0.64,9.46,27.56
70305,-0.13,-0.64,9.45,27.56
70321,-0.13,-0.65,9.42,27.46
70337,-0.15,-0.62,9.42,27.56
70355,-0.14,-0.64,9.42,27.46
70371,-0.13,-0.62,9.42,27.44
70387,-0.14,-0.62,9.44,27.56
70406,-0.13,-0.64,9.40,27.44
70421,-0.13,-0.62,9.44,27.44
70438,-0.15,-0.62,9.45,27.56
70456,-0.16,-0.63,9.45,27.44
70471,-0.15,-0.63,9.44,27.56
70489,-0.16,-0.64,9.42,27.46
70506,-0.15,-0.64,9.45,27.46
70521,-0.16,-0.63,9.42,27.56
70539,-0.14,-0.67,9.45,27.44
70556,-0.14,-0.66,9.42,27.46
70572,-0.14,-0.65,9.43,27.56
70589,-0.15,-0.62,9.46,27.46
70606,-0.17,-0.61,9.40,27.56
70623,-0.14,-0.66,9.44,27.56
70639,-0.12,-0.63,9.44,27.46
70657,-0.14,-0.63,9.40,27.56
70673,-0.18,-0.65,9.47,27.56
70689,-0.14,-0.66,9.42,27.46
70707,-0.16,-0.65,9.42,27.56
70723,-0.14,-0.61,9.46,27.46
70739,-0.16,-0.64,9.40,27.56
70758,-0.16,-0.61,9.41,27.56
70773,-0.14,-0.62,9.43,27.46
70790,-0.12,-0.62,9.44,27.56
70808,-0.12,-0.62,9.43,27.44
70823,-0.13,-0.66,9.44,27.44
70841,-0.13,-0.67,9.40,27.55
70858,-0.15,-0.64,9.42,27.44
70874,-0.16,-0.62,9.45,27.46
70891,-0.14,-0.61,9.46,27.46
70908,-0.14,-0.61,9.44,27.44
70924,-0.15,-0.67,9.44,27.55
70941,-0.14,-0.67,9.42,27.46
70959,-0.13,-0.64,9.44,27.46
70974,-0.14,-0.61,9.47,27.56
70991,-0.16,-0.62,9.44,27.44
71009,-0.12,-0.63,9.40,27.56
71025,-0.14,-0.60,9.45,27.56
71042,-0.17,-0.64,9.48,27.44
71059,-0.15,-0.61,9.43,27.56
71075,-0.17,-0.62,9.45,27.44
71092,-0.14,-0.66,9.41,27.56
71110,-0.13,-0.67,9.41,27.46
71126,-0.14,-0.65,9.45,27.44
71142,-0.14,-0.62,9.40,27.56
71160,-0.15,-0.60,9.45,27.46
71176,-0.13,-0.57,9.44,27.44
71193,-0.14,-0.60,9.40,27.56
71211,-0.14,-0.65,9.42,27.44
71226,-0.13,-0.65,9.43,27.46
71243,-0.15,-0.65,9.42,27.56
71261,-0.16,-0.60,9.41,27.46
71276,-0.14,-0.58,9.43,27.56
71293,-0.14,-0.63,9.42,27.46
71311,-0.13,-0.63,9.43,27.44
71326,-0.13,-0.65,9.45,27.56
71344,-0.15,-0.66,9.43,27.44
71361,-0.16,-0.66,9.39,27.46
71376,-0.15,-0.61,9.42,27.56
