time, Acceleration x, Acceleration y, acceleration z, distance
1781,0.00,0.00,0.00,36.83
1798,0.00,0.00,0.00,40.04
1813,0.00,0.00,0.00,40.04
1829,0.00,0.00,0.00,40.04
1846,0.00,0.00,0.00,39.94
1861,0.00,0.00,0.00,40.04
1878,0.00,0.00,0.00,40.02
1894,0.00,0.00,0.00,39.94
1910,0.00,0.00,0.00,40.04
1926,0.00,0.00,0.00,40.02
1942,0.00,0.00,0.00,40.04
1958,0.00,0.00,0.00,39.94
1974,0.00,0.00,0.00,40.04
1990,0.00,0.00,0.00,40.04
2007,0.00,0.00,0.00,39.92
2022,0.00,0.00,0.00,40.04
2038,0.00,0.00,0.00,40.04
2055,0.00,0.00,0.00,39.92
2071,0.00,0.00,0.00,40.04
2086,0.00,0.00,0.00,39.97
2103,0.00,0.00,0.00,40.02
2119,0.00,0.00,0.00,39.92
2135,0.00,0.00,0.00,39.95
2151,0.00,0.00,0.00,40.04
2167,0.00,0.00,0.00,39.85
2184,0.00,0.00,0.00,39.95
2199,0.00,0.00,0.00,39.97
2215,0.00,0.00,0.00,39.97
2232,0.00,0.00,0.00,39.85
2247,0.00,0.00,0.00,39.97
2266,0.00,0.00,0.00,39.97
2284,-0.87,-0.90,9.98,39.90
2301,-1.41,-1.13,9.70,39.71
2319,-3.07,-1.24,9.81,39.58
2337,-3.68,-1.09,9.57,39.23
2355,-4.21,-0.71,10.28,38.92
2371,-3.87,-0.97,10.40,38.37
2388,-3.63,-1.66,9.62,37.76
2407,-3.46,-1.79,9.70,37.07
2423,-1.76,-1.89,11.24,36.30
2440,-0.71,-1.22,10.46,35.61
2458,-0.68,-1.22,9.24,34.77
2473,-0.91,-0.83,7.10,34.02
2490,-0.46,0.82,9.44,33.26
2508,-0.14,1.29,9.93,32.44
2524,0.34,1.13,9.13,31.75
2540,0.46,-0.26,7.86,31.05
2558,0.54,-0.89,8.41,30.39
2574,0.35,-1.63,9.39,29.67
2590,0.01,-2.25,8.91,28.97
2608,-0.38,-2.33,8.71,28.21
2623,-0.56,-1.66,8.84,27.63
2640,-1.20,-0.56,8.71,26.76
2658,-1.65,-0.22,8.60,25.93
2673,-1.51,0.33,8.25,25.18
2690,-0.87,0.41,8.34,24.46
2707,-0.39,0.52,8.54,23.55
2722,-0.06,-0.04,8.77,22.79
2740,0.19,-0.49,8.77,21.90
2757,0.48,-1.53,8.77,21.06
2771,1.00,-2.08,8.94,20.51
2789,1.32,-1.96,9.07,19.68
2805,1.55,-1.67,9.47,19.00
2821,1.75,-1.08,9.88,18.23
2838,1.73,-1.01,9.88,17.95
2853,1.53,-0.88,9.69,17.54
2868,1.69,-0.79,9.72,17.06
2883,1.43,-0.47,10.21,16.51
2899,1.34,-0.37,10.11,16.01
2915,0.54,-0.18,9.60,15.67
2930,0.50,-0.12,9.09,15.53
2947,0.59,-0.01,9.56,15.39
2962,0.80,0.11,10.07,14.78
2979,0.58,0.06,10.00,14.43
2994,-0.48,-0.31,9.21,14.57
3011,-0.67,-0.42,8.83,13.94
3025,0.11,-0.44,9.06,13.59
3042,1.06,-0.67,10.18,13.68
3058,1.74,-0.83,10.43,13.18
3073,3.03,-1.79,11.65,13.23
3090,3.06,-2.04,12.11,13.04
3104,2.76,-1.85,11.85,13.11
3120,2.00,-1.46,11.91,13.18
3134,-0.36,0.09,8.96,13.40
3151,-1.17,0.69,8.33,13.54
3166,-1.66,1.47,7.53,13.47
3181,-1.35,1.26,7.89,13.39
3196,-0.43,0.25,9.19,13.32
3213,0.46,-1.18,10.45,13.46
3227,0.58,-2.30,10.49,13.46
3244,-0.23,-2.75,9.09,13.52
3260,-0.53,-2.54,8.93,13.54
3275,-0.82,-0.92,8.60,13.47
3292,-0.56,-0.48,8.78,13.39
3307,0.17,0.72,9.97,13.39
3323,0.23,0.67,10.22,13.46
3340,0.24,0.03,10.02,13.54
3355,0.02,-0.98,9.70,13.59
3369,-0.11,-1.17,9.50,13.59
3385,-0.27,-1.12,9.25,13.68
3401,-0.04,-0.98,9.52,13.68
3417,1.69,-0.15,11.63,13.46
3431,2.27,0.13,12.15,13.59
3446,4.07,0.75,10.75,13.99
3463,4.05,0.56,10.89,14.36
3478,4.17,-0.28,12.44,14.85
3494,4.84,-1.55,13.12,15.60
3511,5.79,-2.55,12.33,16.44
3526,4.63,-2.43,11.21,17.27
3544,4.15,-1.79,10.65,18.64
3558,2.98,-0.79,8.90,19.55
3573,2.54,-0.56,8.74,20.85
3589,1.08,-0.87,9.06,21.97
3606,0.45,-1.14,9.44,23.29
3621,0.37,-1.04,9.56,24.46
3637,-0.48,-0.55,5.19,25.62
3654,-0.77,-0.22,4.40,26.94
3671,-2.28,-0.03,5.22,27.94
3687,-2.69,0.06,6.00,29.06
3704,-3.64,-0.06,7.06,30.15
3721,-4.54,-0.17,7.95,31.10
3736,-5.62,0.20,8.72,31.78
3755,-5.85,0.19,9.01,32.37
3771,-5.70,0.42,8.97,32.88
3787,-5.82,0.48,8.84,33.05
3805,-5.64,-0.16,9.41,33.19
3821,-5.17,-1.33,9.84,33.19
3837,-5.12,-1.92,9.75,33.12
3856,-3.43,-2.59,7.08,33.09
3871,-1.93,-0.21,9.42,32.85
3888,-0.85,0.03,8.09,32.71
3906,-0.83,0.00,9.11,32.57
3921,1.92,-0.23,10.81,32.51
3938,2.35,-0.98,11.69,32.57
3956,3.01,-3.18,11.64,32.64
3972,0.79,-3.57,10.47,32.71
3989,-1.26,-1.93,8.74,32.81
4006,-2.22,-0.50,8.15,32.71
4023,-1.52,0.49,8.58,32.75
4039,-0.95,0.59,9.11,32.64
4057,0.36,-0.28,9.95,32.64
4073,0.46,-1.05,10.14,32.64
4089,-0.27,-1.97,9.48,32.64
4108,-0.45,-1.94,9.38,32.64
4123,-0.61,-0.87,9.33,32.64
4141,-0.16,-0.33,9.50,32.81
4158,0.53,-0.27,10.04,32.78
4174,1.18,-0.70,10.58,32.95
4191,2.94,-0.66,11.59,32.99
4209,3.52,-0.63,12.18,33.33
4225,2.82,-0.86,12.39,33.60
4241,0.23,-1.43,4.30,33.95
4259,-0.19,-1.60,4.82,34.43
4275,-1.09,-1.83,8.75,34.79
4292,-0.48,-1.23,11.64,35.13
4310,-0.66,-0.67,10.23,35.47
4326,-2.01,-0.50,8.01,35.75
4342,-5.36,-0.10,9.43,35.89
4361,-5.10,-0.11,10.17,35.89
4377,-4.85,-0.16,9.97,35.75
4392,-2.72,-0.57,5.66,35.68
4411,-3.12,-1.20,9.26,35.47
4427,-2.75,-1.13,6.34,35.20
4443,-3.16,-1.03,8.90,34.86
4461,-1.30,-0.12,13.13,34.36
4477,-6.65,1.29,13.23,33.67
4493,-7.40,0.33,6.05,32.92
4511,-6.22,-0.29,5.72,31.89
4527,-3.79,-2.22,11.47,30.84
4543,-3.12,-3.03,8.68,29.74
4560,-2.82,-3.14,6.46,28.52
4577,-2.12,-2.86,6.11,27.32
4593,-0.99,-1.38,8.28,26.17
4611,-0.41,-0.73,8.27,24.83
4626,0.96,0.40,7.21,23.72
4641,2.62,0.63,7.16,22.76
4658,12.01,2.37,9.96,21.86
4673,16.83,2.93,15.14,21.33
4688,17.73,1.39,18.55,20.85
4704,5.69,-1.75,21.37,20.17
4721,1.81,-3.86,16.11,20.51
4737,-1.48,-0.72,5.31,20.54
4753,-2.52,-1.37,5.42,20.99
4770,-3.31,-1.01,5.30,21.13
4786,-5.26,-1.62,6.79,21.02
4803,-6.04,-1.92,8.93,21.01
4819,-3.73,-1.84,5.09,20.78
4835,-3.95,-1.28,5.43,20.58
4852,-1.05,-0.11,7.47,20.37
4868,3.81,-0.10,16.57,20.30
4883,4.64,-0.38,16.39,20.37
4900,3.46,-0.15,9.31,20.51
4916,-1.58,0.36,10.30,20.41
4931,-1.37,0.81,6.73,20.51
4945,-3.10,0.53,6.84,20.51
4963,-2.48,0.44,7.16,20.37
4978,0.65,-0.73,10.48,20.37
4994,1.11,-1.06,11.12,20.37
5011,1.24,-1.69,10.60,20.44
5026,0.04,-1.55,9.68,20.44
5042,-0.91,-0.95,8.48,20.44
5057,-1.36,-0.67,8.43,20.34
5074,-1.21,-0.57,8.63,20.44
5089,-0.05,-0.57,9.88,20.44
5105,0.10,-0.61,9.98,20.44
5123,0.00,-0.56,9.82,20.51
5138,-0.49,-0.28,9.30,20.51
5155,-0.54,-0.05,9.02,20.51
5172,-0.52,-0.07,9.47,20.51
5187,-0.29,-0.38,9.57,20.51
5204,-0.11,-0.51,9.70,20.51
5221,0.22,-1.10,10.02,20.47
5236,0.28,-1.18,9.96,20.47
5254,-0.01,-1.26,9.69,20.65
5268,0.14,-0.86,9.50,20.73
5283,0.52,-0.75,9.66,20.85
5299,1.90,-0.49,9.68,21.06
5316,2.69,-0.45,9.69,21.30
5331,3.91,-0.46,10.69,21.73
5347,4.18,-0.62,10.45,22.38
5364,4.37,-0.75,10.03,23.13
5380,3.43,-0.50,9.68,23.84
5396,3.08,-0.37,9.51,24.66
5411,1.21,-0.08,9.49,25.49
5428,0.21,-0.37,10.34,26.38
5444,-0.33,-0.44,10.71,27.05
5459,-1.54,-0.48,11.22,27.80
5478,-2.99,-0.51,7.69,28.73
5493,-3.39,-0.36,4.19,29.26
5510,-4.12,0.33,6.45,29.79
5527,-4.22,0.20,8.25,30.36
5542,-4.11,-0.34,10.68,30.74
5560,-4.29,-0.22,9.97,31.01
5577,-4.17,-0.14,8.70,31.11
5593,-3.57,-0.08,8.79,31.29
5610,-3.16,-0.37,10.05,31.36
5627,-3.14,-0.44,10.04,31.25
5643,-2.04,-0.85,7.84,31.22
5660,-1.50,-0.77,8.44,31.05
5678,-1.79,-0.69,8.92,31.05
5694,0.00,-0.80,8.50,31.01
5710,-0.56,-0.87,9.32,30.84
5728,-0.54,-0.66,8.29,30.77
5744,-1.49,-0.90,9.50,30.81
5761,-0.13,-1.75,9.69,30.63
5778,0.31,-2.28,10.70,30.63
5794,1.23,-2.91,10.47,30.57
5811,0.88,-2.33,10.39,30.63
5828,-0.13,-1.34,9.60,30.74
5844,-1.08,-0.43,9.27,30.63
5861,-1.33,0.09,8.93,30.63
5879,-1.35,0.08,9.06,30.67
5895,-0.61,-0.59,9.35,30.57
5911,0.09,-1.10,9.80,30.57
5929,0.30,-1.31,9.99,30.57
5946,0.10,-1.18,9.79,30.57
5962,-0.76,-0.53,9.39,30.57
5980,-0.93,-0.42,9.07,30.57
5996,-1.08,-0.37,9.19,30.60
6012,-0.62,-0.64,9.27,30.60
6030,-0.35,-0.82,9.58,30.50
6045,-0.19,-1.38,9.49,30.60
6063,-0.18,-1.41,9.56,30.50
6080,-0.22,-1.35,9.55,30.50
6097,-0.29,-1.09,9.59,30.50
6113,-0.57,-0.65,9.27,30.60
6131,-0.75,-0.55,9.18,30.50
6148,-0.65,-0.52,9.25,30.60
6164,-0.41,-0.68,9.50,30.50
6182,-0.17,-0.84,9.61,30.60
6200,-0.10,-0.96,9.62,30.50
6215,-0.45,-0.78,9.44,30.50
6233,-0.56,-0.70,9.28,30.50
6251,-0.70,-0.62,9.25,30.60
6266,-0.51,-0.79,9.42,30.50
6284,-0.35,-1.17,9.56,30.50
6301,-0.34,-1.23,9.44,30.50
6319,-0.45,-1.06,9.49,30.50
6335,-0.61,-0.72,9.28,30.50
6352,-0.64,-0.57,9.27,30.50
6371,-0.42,-0.45,9.40,30.60
6386,-0.33,-0.76,9.55,30.50
6403,-0.42,-0.90,9.50,30.50
6421,-0.57,-1.08,9.39,30.50
6436,-0.61,-1.01,9.26,30.43
6454,-0.60,-0.91,9.39,30.43
6472,-0.34,-0.63,9.45,30.43
6488,-0.24,-0.56,9.63,30.43
6505,-0.36,-0.66,9.50,30.53
6522,-0.43,-0.74,9.52,30.43
6538,-0.58,-0.63,9.34,30.53
6555,-0.76,-0.53,9.29,30.43
6573,-0.70,-0.57,9.19,30.43
6589,-0.34,-0.80,9.65,30.43
6605,-0.25,-1.16,9.65,30.43
6624,-0.32,-1.18,9.55,30.53
6639,-0.66,-1.11,9.33,30.43
6656,-0.65,-0.98,9.37,30.43
6674,-0.66,-0.87,9.38,30.36
6689,-1.06,-0.73,9.53,30.36
6706,-1.66,-0.52,8.83,30.39
6724,-1.96,-0.58,9.12,30.15
6739,-2.70,-1.27,9.66,30.03
6757,-3.59,-1.31,9.16,29.91
6774,-3.65,-1.02,9.02,29.54
6790,-2.59,0.09,9.54,29.36
6807,-1.69,-0.67,9.14,29.00
6824,-1.79,-0.22,9.39,28.49
6840,-0.51,-0.99,9.33,28.08
6856,0.75,-1.00,9.77,27.73
6874,1.19,-0.09,9.61,27.43
6889,1.06,1.00,8.99,27.13
6905,1.23,0.28,9.47,26.76
6922,1.62,-0.72,9.57,26.67
6938,0.74,-1.01,9.61,26.41
6956,0.16,-1.18,9.59,26.31
6973,0.07,-1.12,9.74,26.07
6988,0.33,-0.45,9.05,26.03
7004,0.21,-0.21,8.88,25.90
7020,0.22,-0.05,9.85,25.76
7037,-0.11,-0.30,9.91,25.59
7053,-0.48,-1.14,9.48,25.45
7069,-1.13,-1.36,9.13,25.42
7087,-1.24,-1.33,9.41,25.18
7102,-1.50,-1.36,9.34,25.04
7118,-1.73,-1.29,9.19,24.90
7136,-1.90,-0.75,8.80,24.83
7151,-2.03,-0.10,8.58,24.73
7169,-2.05,0.00,8.93,24.59
7186,-1.75,0.40,8.99,24.28
7201,-0.80,0.00,8.61,24.06
7218,-0.52,-0.02,9.05,23.82
7235,0.15,-0.19,9.83,23.41
7250,-0.46,-1.15,9.56,23.07
7268,-0.42,-1.35,8.94,22.72
7285,0.70,-1.58,9.40,22.21
7301,1.09,-1.63,10.29,22.09
7318,1.15,-1.45,9.95,21.83
7333,1.10,-1.01,9.39,21.68
7349,0.84,-0.51,9.81,21.49
7366,0.57,-0.17,10.00,21.33
7382,-0.56,-0.25,9.14,21.20
7397,-0.95,-0.44,9.03,20.94
7412,-0.63,-1.09,9.32,20.85
7430,-0.52,-1.26,9.40,20.58
7444,-0.42,-1.35,9.39,20.51
7460,-0.36,-1.01,9.35,20.20
7477,-0.48,-0.80,9.37,20.03
7492,-1.11,-0.40,9.12,19.89
7507,-1.52,-0.37,9.04,19.62
7523,-1.37,-0.35,8.74,19.20
7540,-1.09,-0.40,8.94,19.02
7555,-0.28,-0.87,9.44,18.64
7571,-0.36,-1.10,9.39,18.36
7588,-0.22,-1.21,9.27,18.29
7603,0.11,-1.33,9.48,17.75
7620,0.28,-1.20,9.62,17.75
7636,0.42,-0.83,9.76,17.33
7652,0.10,-0.59,9.49,17.33
7669,0.17,-0.33,9.40,16.92
7684,0.73,0.01,9.82,16.85
7699,1.68,0.34,10.40,16.90
7714,2.15,0.27,10.87,17.02
7731,2.23,-0.10,10.90,16.99
7746,1.47,-0.66,11.90,16.84
7761,1.11,-0.63,11.50,16.90
7778,-1.15,-0.44,8.69,16.90
7793,-1.81,0.05,7.71,16.99
7809,-1.18,0.42,8.13,16.97
7823,0.45,0.31,10.28,17.20
7840,1.72,-0.56,11.25,17.47
7856,1.42,-1.30,10.30,17.33
7872,1.07,-1.51,9.82,17.75
7888,0.32,-1.83,9.53,17.75
7904,0.84,-1.32,10.01,18.23
7921,1.34,-1.07,9.99,18.43
7937,2.10,-0.94,9.93,18.71
7951,2.34,-0.99,10.39,19.14
7967,2.13,-0.91,10.59,19.82
7984,1.73,-0.71,10.01,20.34
7999,1.49,-0.62,9.88,20.94
8014,1.08,-0.64,9.77,21.62
8032,0.90,-0.66,9.74,22.38
8047,0.30,-0.94,9.95,23.07
8062,0.00,-0.98,10.09,23.58
8079,-0.23,-0.94,10.30,24.27
8095,-0.46,-0.73,7.33,24.97
8111,-0.56,-0.47,5.26,25.66
8126,-0.78,-0.41,7.03,26.34
8143,-0.99,-0.51,8.61,27.20
8160,-1.55,-0.25,10.16,27.84
8175,-1.91,-0.37,8.46,28.45
8194,-2.20,-0.33,7.80,28.97
8209,-2.25,-0.07,8.72,29.45
8225,-2.05,0.19,9.28,30.12
8244,-1.92,0.14,9.13,30.50
8259,-1.53,-0.12,8.88,30.91
8276,-1.24,-0.67,9.26,31.46
8294,-1.15,-0.79,9.29,31.87
8310,-0.41,-0.92,9.08,32.30
8327,-0.19,-0.67,9.02,32.76
8345,-0.28,-0.18,9.10,33.43
8360,-0.07,0.04,9.26,33.81
8377,0.54,-0.18,9.42,34.29
8395,0.58,-0.18,9.35,34.99
8412,0.23,-0.07,8.57,35.54
8428,-0.67,-0.09,8.69,36.09
8446,-1.61,-0.10,9.46,36.64
8462,-2.61,-0.16,9.73,37.12
8478,-3.19,-0.96,9.34,37.47
8497,-3.16,-1.65,9.24,37.89
8513,-2.93,-2.73,9.86,38.10
8529,-2.04,-2.74,9.98,38.37
8548,-1.52,-2.72,9.83,38.55
8564,-1.24,-2.47,9.12,38.86
8581,-1.87,-1.69,9.61,39.01
8598,-1.90,-1.11,9.78,39.20
8614,-1.96,-0.53,9.69,39.34
8631,-1.57,-0.35,9.57,39.40
8648,-0.37,-0.39,9.46,39.54
8665,-0.23,-0.36,9.28,39.61
8681,-0.59,-0.10,8.99,39.75
8699,-0.96,0.33,9.57,39.78
8716,-0.92,0.30,9.73,39.95
8732,-1.75,0.33,9.51,40.02
8750,-2.81,0.26,9.49,39.92
8766,-3.78,0.24,9.75,39.87
8782,-2.28,-0.98,7.63,39.80
8800,0.22,-1.22,11.00,39.83
8816,0.60,-0.86,10.19,39.71
8833,0.00,-1.73,10.52,39.64
8850,-0.60,-2.48,9.06,39.75
8866,-1.83,-2.57,9.00,39.68
8883,-2.84,-1.78,8.40,39.54
8900,-3.40,-0.74,7.60,39.34
8916,-3.25,-0.67,7.92,39.13
8933,-0.91,-1.02,13.82,38.86
8950,-0.86,-0.71,14.08,38.58
8967,-1.89,-0.41,10.78,38.17
8983,-3.80,-0.91,7.77,37.67
9000,-2.96,-1.00,11.26,37.14
9017,-2.82,-1.24,11.02,36.50
9033,-2.31,-1.83,9.83,35.78
9051,-1.77,-1.86,9.79,35.11
9069,-2.09,-1.39,9.42,34.24
9086,-2.79,-0.53,8.77,33.33
9102,-2.78,-0.50,9.00,32.51
9118,-2.53,-0.86,8.84,31.53
9134,-1.67,-1.14,8.23,30.63
9151,-0.45,-1.12,7.89,29.66
9166,0.30,-0.90,8.26,28.88
9183,1.65,-0.58,8.67,27.94
9200,2.08,-0.53,8.69,27.10
9216,3.19,-0.60,8.93,26.48
9232,3.86,-0.56,9.42,26.00
9249,4.45,-0.51,9.75,25.69
9265,5.55,-0.51,10.38,25.49
9282,5.19,-0.79,10.38,25.37
9299,4.48,-0.90,10.42,25.31
9315,3.20,-0.63,11.25,25.38
9331,0.18,-0.27,10.96,25.55
9350,-2.19,0.36,7.73,25.55
9365,-2.60,0.28,7.40,25.38
9381,-1.72,-0.02,8.24,25.49
9400,0.80,-1.39,10.37,25.38
9415,0.87,-2.30,10.76,25.38
9433,0.67,-2.45,10.43,25.55
9450,-0.94,-1.69,8.94,25.45
9465,-1.56,-0.32,8.39,25.38
9483,-1.07,0.10,8.89,25.49
9500,-0.06,0.35,9.94,25.38
9516,-0.02,-0.70,9.89,25.38
9533,-0.41,-1.04,9.50,25.31
9550,-1.89,-1.35,8.24,25.25
9566,-2.34,-0.99,8.48,25.11
9583,-3.79,-0.81,11.09,24.83
9601,-3.35,-1.13,9.03,24.58
9616,-2.73,-1.57,7.91,24.25
9633,-2.48,-1.67,8.91,23.65
9651,-2.34,-1.25,9.36,23.27
9666,-2.06,-0.98,8.30,22.72
9683,-1.66,-0.41,8.43,22.05
9701,-1.03,0.00,9.10,21.37
9716,0.57,0.03,8.99,20.99
9733,0.94,-0.05,9.17,20.51
9749,2.74,-0.25,10.23,20.17
9764,3.13,-0.36,10.57,19.96
9782,3.96,-0.64,10.88,19.89
9797,5.93,-0.80,11.83,19.89
9815,6.29,-0.87,12.80,20.03
9831,2.18,-0.87,11.29,20.17
9846,-1.59,-0.49,7.58,20.37
9862,-0.98,-0.22,7.69,20.41
9876,0.28,-0.44,7.81,20.71
9893,0.89,-0.46,8.84,20.99
9909,1.57,-1.04,11.15,21.33
9925,2.04,-1.14,11.64,21.76
9943,3.08,-1.01,10.00,22.24
9958,2.52,-0.91,10.26,22.79
9973,2.67,-0.96,10.35,23.48
9989,2.99,-0.83,10.49,24.11
10006,2.60,-0.57,10.56,24.89
10021,2.04,-0.66,10.98,25.83
10038,1.30,-0.98,9.59,26.72
10055,1.22,-0.42,5.45,27.65
10071,-0.47,0.13,5.78,28.66
10087,-1.89,-0.05,8.39,29.57
10105,-2.53,-0.22,9.12,30.43
10121,-4.14,-0.21,8.67,31.05
10138,-5.98,-0.42,7.89,31.68
10156,-6.19,-0.47,8.22,32.08
10172,-6.40,-0.97,9.27,32.35
10188,-6.17,-1.78,9.80,32.44
10207,-6.17,-1.97,9.61,32.52
10222,-5.13,-2.17,7.58,32.28
10238,-2.58,-0.90,6.59,32.14
10257,-3.24,-0.59,8.53,31.87
10272,-2.73,-0.39,6.67,31.66
10289,4.24,-2.04,13.43,31.53
10307,3.96,-1.86,15.41,31.53
10322,3.68,-0.42,8.14,31.70
10340,-1.12,0.92,10.77,31.77
10357,-0.61,0.38,7.99,31.66
10374,-2.30,-0.34,8.73,31.77
10390,-0.49,-1.34,8.27,31.60
10407,-0.65,-1.69,9.62,31.60
10426,0.49,-2.05,9.15,31.66
10441,-0.39,-1.62,10.27,31.60
10459,-0.45,-1.16,9.33,31.70
10475,-1.15,-0.34,9.55,31.60
10490,-0.34,-0.05,9.61,31.70
10509,-0.20,-0.21,10.14,31.60
10525,0.11,-0.59,9.57,31.60
10541,-0.69,-1.26,9.18,31.61
10559,-0.97,-1.27,8.83,31.60
10576,-0.65,-1.18,9.25,31.60
10592,-0.11,-0.99,9.62,31.60
10609,0.02,-0.89,9.87,11.14
10624,-0.36,-0.65,9.51,9.71
10639,-0.88,-0.59,9.08,6.71
10655,-0.79,-0.55,9.13,5.27
10670,-0.47,-0.56,9.46,4.38
10686,-0.32,-0.57,9.57,3.96
10700,-0.43,-0.95,9.40,3.74
10715,-0.56,-1.02,9.40,3.05
10730,-0.62,-1.12,9.28,3.16
10745,-0.55,-1.09,9.43,2.99
10761,-0.47,-0.90,9.42,2.71
10777,-0.51,-0.75,9.50,2.61
10791,-0.51,-0.70,9.46,2.78
10807,-0.45,-0.67,9.41,2.92
10821,-0.70,-0.59,9.29,2.99
10838,-0.66,-0.56,9.34,2.99
10852,-0.52,-0.57,9.41,2.85
10866,-0.31,-0.57,9.48,2.71
10881,-0.32,-0.83,9.58,2.71
10897,-0.40,-0.90,9.41,2.71
10911,-0.71,-1.17,9.25,2.71
10928,-0.76,-1.15,9.25,2.64
10942,-0.64,-0.96,9.39,2.71
10958,-0.38,-0.68,9.50,2.71
10973,-0.33,-0.51,9.57,2.71
10989,-0.55,-0.48,9.39,2.61
11003,-0.70,-0.66,9.35,2.85
11018,-0.60,-0.80,9.29,2.85
11032,-0.52,-1.11,9.47,2.92
11048,-0.42,-1.09,9.50,2.99
11063,-0.55,-0.79,9.43,2.93
11079,-0.54,-0.67,9.40,2.92
11094,-0.58,-0.56,9.42,2.81
11110,-0.45,-0.63,9.40,2.92
11123,-0.38,-0.79,9.50,3.00
11140,-0.45,-0.98,9.46,3.05
11154,-0.57,-1.09,9.47,3.12
11168,-0.57,-1.06,9.38,3.19
11183,-0.53,-0.92,9.44,3.26
11199,-0.47,-0.83,9.48,3.26
11213,-0.52,-0.47,9.43,3.26
11230,-0.46,-0.44,9.43,3.26
11244,-0.50,-0.56,9.47,3.26
11260,-0.44,-0.64,9.50,3.21
11275,-0.60,-1.06,9.41,3.12
11291,-0.58,-1.13,9.44,2.81
11305,-0.59,-1.14,9.40,2.85
11320,-0.51,-1.10,9.37,2.78
11334,-0.45,-1.07,9.40,2.78
11351,-0.41,-0.94,9.48,2.78
11365,-0.46,-0.87,9.49,2.85
11380,-0.54,-0.78,9.44,2.85
11395,-0.57,-0.69,9.40,2.92
11410,-0.58,-0.67,9.40,2.92
11424,-0.56,-0.63,9.38,2.99
11441,-0.50,-0.63,9.44,2.99
11455,-0.49,-0.80,9.46,2.99
11469,-0.47,-0.85,9.42,2.99
11485,-0.48,-0.99,9.44,2.99
11500,-0.46,-0.98,9.47,2.99
11514,-0.47,-0.87,9.47,2.99
11531,-0.54,-0.81,9.42,2.92
11545,-0.58,-0.70,9.31,2.92
11560,-0.60,-0.69,9.39,2.80
11576,-0.45,-0.80,9.47,2.78
11591,-0.44,-0.86,9.45,2.71
11606,-0.56,-0.91,9.41,2.71
11620,-0.58,-0.92,9.37,2.64
11635,-0.48,-0.87,9.39,2.64
11651,-0.45,-0.86,9.51,2.61
11666,-0.49,-0.75,9.44,2.61
11680,-0.48,-0.70,9.47,2.71
11696,-0.62,-0.71,9.35,2.64
11711,-0.56,-0.73,9.39,2.64
11726,-0.43,-0.81,9.43,2.64
11741,-0.41,-0.85,9.53,2.64
11756,-0.35,-0.89,9.48,2.64
11770,-0.50,-0.86,9.41,2.64
11786,-0.58,-0.90,9.42,2.64
11800,-0.60,-0.81,9.43,2.57
11816,-0.59,-0.74,9.38,2.47
11831,-0.56,-0.70,9.36,2.57
11846,-0.38,-0.70,9.45,2.57
11862,-0.39,-0.74,9.45,2.40
11877,-0.55,-0.94,9.38,2.51
11891,-0.57,-0.97,9.32,2.51
11907,-0.58,-1.02,9.37,2.51
11921,-0.51,-1.00,9.41,2.51
11936,-0.50,-0.95,9.51,2.57
11951,-0.39,-0.84,9.47,2.64
11967,-0.49,-0.81,9.47,2.75
11981,-0.62,-0.76,9.28,2.92
11997,-0.59,-0.74,9.38,4.44
12013,-0.45,-0.76,9.48,31.61
12029,-0.48,-0.71,9.50,31.60
12048,-0.56,-0.70,9.39,31.60
12065,-0.67,-1.02,9.42,31.70
12081,-0.59,-1.34,9.38,31.60
12099,-0.66,-1.52,9.38,31.53
12116,-0.90,-1.34,9.07,31.53
12133,-0.79,-0.75,9.40,31.46
12149,-0.87,-0.42,9.63,31.49
12168,-1.55,-0.42,9.79,31.32
12183,-3.14,-0.40,9.31,31.05
12200,-6.62,-0.39,9.13,30.70
12218,-7.02,-0.56,9.09,30.15
12234,-7.83,-1.43,8.63,29.45
12251,-7.43,-1.44,8.13,28.56
12268,-5.96,-1.45,9.66,27.55
12284,-4.44,-1.42,8.98,26.46
12301,-3.03,-1.24,5.99,25.04
12318,-2.27,-1.12,6.33,23.65
12334,-0.28,-0.54,7.81,22.41
12350,-0.14,-0.49,7.86,21.20
12367,0.97,-0.57,7.47,19.94
12383,2.43,-0.22,8.22,18.79
12400,2.83,-0.13,8.86,17.68
12417,3.66,-0.45,9.98,16.90
12431,3.99,-0.82,10.15,16.01
12448,4.28,-1.07,10.76,15.60
12464,3.70,-1.14,11.58,14.91
12478,3.32,-1.47,11.17,14.55
12493,3.21,-1.63,10.64,14.35
12510,3.19,-1.58,10.78,13.88
12525,2.95,-0.69,11.72,14.02
12540,2.93,-0.40,11.61,13.80
12556,3.11,0.55,11.55,13.90
12572,2.71,0.83,12.28,13.95
12587,1.31,0.90,12.20,13.97
12603,-0.07,0.92,9.84,13.99
12619,-1.18,0.60,8.06,13.87
12635,-2.23,-0.08,7.16,13.97
12651,-2.22,-0.41,6.90,13.87
12667,-1.14,-1.42,8.58,13.88
12682,-0.49,-1.62,9.41,13.88
12699,0.80,-1.65,11.10,13.88
12713,0.67,-1.61,10.93,13.88
12729,-0.33,-1.46,9.34,13.94
12743,-1.33,-1.12,8.17,13.95
12761,-1.58,-0.66,8.08,13.94
12775,-1.21,-0.30,8.56,13.99
12790,-0.87,-0.18,9.02,13.88
12805,0.00,-0.43,10.16,13.87
12822,0.06,-0.58,10.23,13.87
12837,-0.19,-0.93,9.53,13.99
12854,-0.49,-0.67,9.27,13.87
12870,-0.67,-0.33,9.09,13.88
12886,-0.55,-0.07,9.21,13.87
12902,-0.41,-0.08,9.60,13.88
12917,-0.33,-0.37,9.70,13.87
12933,-0.33,-0.54,9.62,13.88
12948,-0.50,-1.17,9.35,13.87
12964,-0.56,-1.31,9.20,13.87
12979,-0.54,-1.26,9.29,13.88
12994,-0.43,-1.00,9.46,13.99
13011,-0.35,-0.69,9.54,13.87
13026,-0.34,-0.59,9.64,13.97
13043,-0.35,-0.65,9.55,13.87
13058,-0.52,-0.87,9.30,13.97
13074,-0.51,-0.91,9.29,5.27
13088,-0.53,-0.58,9.39,4.79
13104,-0.45,-0.47,9.49,3.81
13120,-0.39,-0.32,9.60,3.05
13134,-0.39,-0.43,9.45,2.92
13151,-0.45,-0.70,9.31,2.71
13165,-0.47,-0.90,9.42,3.07
13179,-0.43,-1.00,9.37,3.28
13195,-0.42,-0.95,9.46,5.34
13211,-0.49,-0.90,9.47,3.35
13227,-0.54,-0.67,9.40,3.12
13242,-0.53,-0.62,9.38,2.71
13256,-0.47,-0.68,9.35,2.37
13273,-0.42,-0.75,9.37,2.23
13287,-0.32,-0.90,9.54,2.23
13303,-0.32,-0.90,9.59,2.20
13318,-0.38,-0.77,9.54,2.44
13331,-0.48,-0.54,9.44,2.64
13346,-0.53,-0.37,9.35,2.99
13363,-0.35,-0.33,9.59,2.97
13377,-0.16,-0.25,9.53,2.99
13392,-0.53,-0.13,9.42,2.64
13407,-0.57,-0.90,9.23,2.51
13423,-0.56,-1.02,9.36,2.44
13437,-0.41,-1.10,9.58,2.37
13454,-0.35,-1.09,9.56,2.20
13467,-0.51,-0.58,9.25,2.37
13481,-0.56,-0.45,9.30,2.30
13497,-0.43,-0.51,9.46,2.30
13513,-0.36,-0.56,9.52,2.44
13528,-0.31,-0.76,9.68,3.19
13544,-0.38,-0.90,9.54,3.05
13558,-0.47,-0.92,9.40,4.51
13576,-0.53,-0.85,9.29,13.90
13590,-0.50,-0.73,9.34,13.88
13607,-0.45,-0.66,9.41,13.97
13623,-0.42,-0.48,9.53,13.88
13639,-0.47,-0.56,9.46,13.97
13656,-0.54,-0.65,9.35,13.97
13670,-0.56,-0.81,9.28,13.87
13685,-0.52,-0.80,9.26,13.99
13700,-0.43,-0.81,9.48,13.88
13717,-0.27,-0.80,9.60,13.99
13731,-0.30,-0.74,9.61,13.87
13748,-0.34,-0.71,9.60,13.97
13764,-0.53,-0.70,9.39,13.87
13779,-0.57,-0.75,9.35,13.87
13796,-0.50,-0.71,9.31,13.87
13810,-0.45,-0.56,9.47,13.97
13828,-0.38,-0.43,9.51,13.88
13842,-0.40,-0.45,9.49,13.99
13859,-0.46,-0.54,9.46,13.87
13875,-0.51,-0.68,9.35,13.88
13890,-0.55,-0.88,9.31,13.87
13907,-0.49,-0.89,9.33,13.87
13922,-0.44,-0.96,9.47,13.87
13937,-0.36,-0.94,9.53,13.97
13953,-0.33,-0.91,9.52,13.80
13969,-0.45,-0.81,9.46,13.97
13984,-0.50,-0.71,9.42,5.70
14000,-0.45,-0.67,9.35,3.83
14014,-0.41,-0.53,9.39,2.92
14030,-0.44,-0.54,9.46,2.85
14045,-0.50,-0.57,9.43,2.71
14060,-0.51,-0.62,9.37,2.64
14074,-0.51,-0.74,9.37,2.64
14091,-0.47,-0.84,9.39,2.78
14105,-0.41,-0.89,9.41,2.92
14120,-0.39,-0.88,9.47,2.92
14135,-0.37,-0.87,9.50,2.85
14150,-0.41,-0.82,9.50,2.71
14164,-0.45,-0.77,9.44,2.78
14181,-0.52,-0.71,9.39,3.00
14195,-0.51,-0.60,9.35,2.81
14211,-0.51,-0.58,9.42,2.92
14225,-0.41,-0.49,9.50,2.92
14240,-0.37,-0.50,9.50,2.92
14255,-0.40,-0.57,9.45,2.92
14271,-0.38,-0.59,9.46,2.81
14285,-0.43,-0.66,9.43,2.92
14301,-0.44,-0.65,9.44,2.87
14315,-0.50,-0.60,9.39,2.85
14331,-0.52,-0.58,9.35,2.85
14346,-0.51,-0.57,9.38,2.78
14362,-0.47,-0.59,9.35,2.71
14375,-0.45,-0.69,9.47,2.71
14392,-0.41,-0.84,9.47,2.64
14406,-0.40,-0.96,9.40,2.57
14423,-0.45,-1.00,9.44,2.47
14436,-0.48,-0.97,9.41,2.64
14452,-0.46,-0.89,9.41,2.64
14468,-0.45,-0.55,9.42,2.71
14483,-0.49,-0.40,9.42,3.05
14498,-0.48,-0.38,9.44,3.47
14514,-0.42,-0.41,9.39,3.64
14529,-0.42,-0.60,9.43,2.88
14543,-0.41,-0.74,9.47,2.87
14560,-0.44,-0.83,9.49,3.12
14574,-0.41,-0.88,9.45,3.69
14588,-0.44,-0.90,9.46,5.34
14605,-0.44,-0.90,9.41,13.87
14621,-0.47,-0.90,9.39,13.87
14636,-0.48,-0.82,9.39,13.87
14653,-0.47,-0.76,9.34,13.88
14667,-0.45,-0.58,9.37,13.87
14685,-0.49,-0.54,9.42,13.99
14699,-0.43,-0.51,9.42,13.87
14715,-0.42,-0.52,9.43,13.87
14731,-0.46,-0.52,9.45,13.97
14746,-0.46,-0.55,9.48,13.88
14764,-0.42,-0.58,9.40,13.99
14778,-0.21,-0.67,9.64,13.88
14792,-0.17,-0.64,9.82,13.99
14808,-0.14,-0.61,9.78,13.87
14825,-0.11,-0.58,9.81,14.04
14839,0.06,-0.97,9.87,14.02
14855,0.73,-1.35,10.04,14.36
14870,1.50,-1.19,10.29,14.40
14886,1.51,-0.45,10.86,14.57
14902,1.49,-0.30,10.95,14.71
14917,1.62,-0.33,10.31,15.19
14934,1.72,-0.39,10.23,15.67
14949,2.31,-0.59,10.63,16.03
14966,2.78,-0.55,10.94,16.53
14983,3.47,-0.39,11.13,17.27
14998,3.84,-0.48,10.90,18.09
15015,3.81,-0.44,10.91,19.12
15030,3.17,-0.54,10.25,20.03
15045,2.82,-0.54,9.98,21.06
15062,2.29,-0.63,9.30,22.05
15078,1.73,-0.85,9.37,23.31
15093,1.34,-1.07,9.43,24.49
15109,0.24,-0.90,8.98,25.69
15127,-0.16,-0.97,9.12,27.06
15142,-0.48,-0.67,4.52,28.15
15159,-0.58,-0.34,5.46,29.40
15177,-1.11,0.14,6.85,30.81
15193,-1.99,0.37,7.67,31.82
15209,-2.74,0.36,7.92,32.92
15227,-2.78,0.22,7.93,34.08
15243,-3.72,-0.05,8.20,34.99
15260,-4.11,0.07,8.47,35.89
15279,-4.30,0.04,8.93,36.61
15294,-4.02,0.00,9.57,37.34
15311,-4.29,-0.30,9.87,37.89
15330,-4.50,-0.39,9.55,38.36
15345,-4.85,-0.81,9.45,38.72
15362,-5.26,-0.95,10.04,38.92
15380,-5.46,-1.55,10.25,38.99
15396,-6.24,-3.34,10.44,38.92
15413,-3.81,-2.59,5.50,38.68
15430,-2.70,-1.52,6.30,38.58
15447,-2.55,-0.64,9.52,38.36
15463,-2.03,-0.90,8.27,38.17
15480,-1.33,-1.32,10.71,37.83
15497,-0.03,-1.78,15.33,37.53
15513,-1.68,-1.01,8.13,37.28
15531,-2.06,-0.93,6.68,36.85
15547,-1.06,-0.83,10.52,36.50
15563,-1.19,-0.91,9.96,36.16
15581,-1.78,-1.01,8.70,35.68
15597,-2.92,-0.92,9.20,35.11
15613,-2.55,-1.12,10.91,34.56
15631,-2.49,-1.31,10.68,33.88
15647,-3.16,-1.29,8.62,33.19
15663,-2.86,-1.13,8.65,32.44
15681,-2.43,-1.13,9.19,31.53
15696,-1.81,-1.14,9.36,30.79
15713,-1.21,-1.30,8.01,29.86
15730,-1.14,-1.29,7.95,29.00
15747,-0.70,-0.96,8.59,28.08
15763,-0.31,-0.94,8.75,27.29
15780,0.10,-1.04,8.43,26.28
15796,0.59,-0.93,8.53,25.52
15812,0.63,-0.57,8.99,24.87
15830,0.88,-0.35,9.09,23.92
15845,1.39,-0.25,9.01,23.31
15860,1.38,-0.27,9.17,22.62
15876,1.10,-0.15,9.53,22.17
15893,1.27,-0.28,9.35,21.62
15908,1.46,-0.39,9.34,21.13
15924,1.63,-0.62,9.95,20.61
15941,1.44,-0.67,10.07,20.27
15956,1.24,-0.97,9.70,20.03
15973,1.41,-0.99,9.64,19.43
15989,2.42,-0.84,10.52,19.55
16005,3.05,-0.61,10.95,19.41
16022,3.25,-0.47,11.11,19.41
16038,3.16,-0.39,11.30,19.55
16054,0.57,-0.39,10.06,19.53
16071,-0.63,-0.35,8.62,19.62
16087,-2.62,-0.35,6.87,19.60
16102,-2.85,-0.46,7.47,19.43
16116,-1.00,-1.08,8.37,19.55
16134,0.45,-1.81,10.58,19.62
16149,1.01,-1.85,11.24,19.44
16164,-0.24,-1.48,9.63,19.60
16182,-0.98,-1.01,8.75,19.62
16197,-1.74,0.18,8.03,19.60
16212,-1.34,0.53,8.40,19.44
16228,0.25,0.43,10.23,19.55
16244,0.46,0.08,10.57,19.62
16260,0.28,-0.93,10.27,19.55
16276,-0.90,-2.09,8.82,19.55
16292,-1.19,-2.17,8.51,19.68
16308,-0.83,-1.63,8.95,7.28
16323,-0.46,-1.41,9.49,5.54
16338,0.17,-0.30,10.31,4.08
16353,0.11,0.06,10.11,3.28
16367,-0.82,0.41,9.14,2.54
16384,-0.99,0.26,8.78,2.30
16397,-1.05,-0.26,8.77,2.16
16411,-0.57,-0.88,9.31,2.09
16425,-0.01,-1.56,9.88,2.23
16442,0.07,-1.83,10.03,2.30
16456,-0.25,-1.67,9.56,2.30
16473,-0.56,-1.43,9.28,2.20
16487,-0.92,-0.41,8.86,2.64
16500,-0.86,-0.13,9.03,2.71
16516,-0.10,0.08,10.07,2.61
16531,0.36,-0.11,10.49,2.71
16546,-0.43,-0.94,9.64,2.68
16561,-0.99,-1.04,8.82,2.71
16576,-1.21,-1.38,8.48,2.61
16591,-0.94,-1.13,8.70,2.71
16606,-0.56,-0.56,9.29,2.71
16621,-0.19,-0.40,9.70,2.71
16636,-0.06,-0.36,10.07,2.71
16651,-0.11,-0.43,9.93,2.61
16665,-0.26,-0.57,9.67,2.64
16680,-0.70,-0.98,9.18,2.54
16696,-0.87,-1.13,8.92,2.64
16711,-0.55,-1.15,9.24,2.57
16727,-0.25,-0.94,9.77,2.64
16742,-0.20,-0.78,9.67,2.64
16757,-0.58,-0.57,9.40,2.64
16774,-0.57,-0.56,9.37,2.54
16788,-0.62,-0.66,9.22,2.64
16802,-0.59,-0.84,9.26,2.54
16818,-0.37,-0.92,9.53,2.61
16833,-0.16,-0.79,9.75,2.64
16848,-0.38,-0.76,9.58,2.64
16865,-0.55,-0.67,9.31,2.54
16879,-0.73,-0.70,9.13,2.64
16894,-0.64,-0.73,9.30,2.64
16909,-0.14,-0.89,9.78,2.64
16925,-0.17,-0.83,9.73,2.64
16940,-0.70,-0.64,9.17,2.64
16954,-0.79,-0.66,9.12,2.64
16968,-0.46,-0.63,9.49,2.64
16985,-0.31,-0.65,9.63,2.64
17000,-0.25,-0.87,9.64,2.64
17015,-0.50,-0.96,9.38,2.64
17030,-0.61,-0.78,9.27,2.64
17046,-0.51,-0.70,9.36,2.64
17060,-0.42,-0.76,9.51,2.64
17077,-0.40,-0.83,9.51,2.64
17091,-0.51,-0.96,9.40,2.54
17104,-0.51,-0.93,9.39,2.64
17120,-0.54,-0.76,9.36,2.66
17136,-0.56,-0.66,9.33,2.64
17150,-0.64,-0.46,9.49,2.64
17167,-0.48,-0.42,9.39,2.37
17181,-0.32,-0.57,9.70,2.33
17198,-0.21,-0.76,9.58,3.96
17211,-0.40,-1.11,9.59,3.54
17227,-0.56,-1.16,9.37,4.31
17243,-0.59,-1.09,9.19,19.34
17260,-0.59,-0.85,9.33,19.62
17276,-0.46,-0.62,9.50,19.55
17292,-0.38,-0.43,9.59,19.55
17307,-0.43,-0.49,9.54,19.55
17323,-0.53,-0.70,9.34,19.55
17340,-0.55,-0.80,9.32,19.55
17355,-0.56,-0.92,9.35,19.55
17372,-0.51,-0.95,9.46,19.53
17388,-0.44,-0.93,9.45,19.55
17403,-0.40,-0.63,9.45,19.55
17421,-0.47,-0.57,9.48,19.55
17436,-0.49,-0.45,9.35,19.55
17453,-0.14,-0.43,9.62,19.55
17468,0.07,-0.77,10.34,19.48
17483,0.47,-1.07,10.00,19.48
17501,0.54,-1.13,10.42,19.75
17516,0.59,-1.07,9.70,19.86
17532,0.70,-0.84,9.28,19.96
17550,1.79,-0.13,9.54,20.37
17565,2.02,0.10,10.94,20.54
17583,2.71,-0.35,10.98,21.09
17599,3.00,-0.51,10.54,21.76
17614,2.86,-0.92,10.77,22.31
17632,2.90,-0.93,10.67,23.08
17649,2.83,-0.60,10.03,23.98
17665,2.60,-0.54,10.25,24.70
17682,2.17,-0.45,10.42,25.78
17698,1.16,-0.62,11.10,26.57
17714,1.06,-0.72,9.99,27.70
17732,0.63,-0.85,4.56,28.70
17747,0.27,-0.69,7.67,29.74
17764,0.00,-0.51,8.78,30.87
17780,-0.78,-0.32,9.35,31.87
17797,-1.91,-0.17,7.67,32.85
17812,-1.88,-0.14,7.26,33.81
17828,-2.51,-0.03,8.07,34.79
17846,-3.34,-0.27,8.71,35.68
17862,-3.62,-0.45,8.96,36.44
17879,-3.73,-0.87,9.16,37.12
17896,-3.79,-1.17,9.33,37.76
17912,-4.45,-1.85,9.96,38.19
17929,-5.59,-1.80,9.86,38.48
17946,-5.69,-1.69,9.83,38.79
17963,-6.02,-1.51,10.19,38.86
17979,-6.73,-1.34,10.00,38.72
17996,-6.56,-1.46,9.14,38.58
18013,-2.01,-1.07,8.36,38.44
18029,-1.38,-0.82,9.46,38.24
18046,-1.66,-0.72,8.07,38.03
18063,-1.63,-0.96,10.52,37.76
18079,-1.05,-1.18,14.22,37.48
18097,-1.22,-1.02,12.23,37.14
18113,-2.69,-1.31,7.08,36.80
18129,-2.77,-1.33,9.98,36.30
18147,-3.24,-1.37,11.09,35.68
18163,-3.52,-1.43,9.59,35.06
18180,-3.68,-1.33,9.88,34.38
18197,-3.71,-0.94,10.48,33.48
18213,-3.74,-0.75,8.93,32.57
18229,-2.68,-1.17,7.72,31.68
18247,-1.90,-1.42,7.84,30.63
18263,0.33,-1.19,8.64,29.74
18279,2.54,-1.05,8.42,28.97
18296,3.38,-0.94,8.45,28.28
18313,5.27,-0.61,9.10,27.91
18328,6.51,-0.47,10.26,27.56
18347,6.53,-0.35,10.47,27.43
18362,5.63,-0.29,10.31,27.32
18378,2.69,0.05,11.61,27.39
18397,0.11,-0.11,9.98,27.56
18412,-2.92,-0.49,7.61,27.46
18427,-2.81,-0.74,7.43,27.39
18445,-1.66,-1.18,8.47,27.39
18460,0.95,-1.73,10.62,27.39
18476,1.11,-1.94,10.93,27.49
18492,0.00,-1.77,9.67,27.49
18509,-0.69,-1.54,9.22,27.56
18525,-1.50,-0.95,8.48,27.39
18540,-0.86,0.02,9.28,27.49
18558,-0.43,0.00,9.54,27.37
18576,-0.09,0.36,9.98,27.49
18591,-0.45,-0.20,9.50,27.37
18609,-0.94,-0.93,9.10,27.39
18624,-0.88,-1.50,8.93,27.48
18640,-0.18,-1.83,9.61,27.49
18659,0.00,-1.72,9.84,27.49
18674,-0.29,-0.99,9.59,27.39
18691,-0.88,-0.36,9.18,27.37
18708,-1.08,0.00,9.01,27.49
18724,-0.74,-0.07,9.29,27.49
18741,-0.03,-0.54,9.81,27.39
18758,-0.07,-0.92,9.84,27.56
18775,-0.58,-1.62,9.36,27.49
18791,-0.85,-1.73,9.00,27.37
18808,-0.94,-1.66,9.06,27.49
18825,-0.33,-0.81,9.53,27.39
18841,-0.13,-0.11,9.75,27.48
18860,-0.29,-0.02,9.65,27.55
18875,-0.76,-0.16,9.23,27.46
18891,-0.90,-0.86,9.06,27.49
18910,-0.75,-1.12,9.21,27.37
18925,-0.04,-1.61,9.76,27.37
18941,-0.04,-1.50,9.76,27.49
18960,-0.47,-1.18,9.45,27.46
18975,-0.89,-0.63,9.13,27.37
18993,-0.82,-0.21,9.25,27.39
19010,-0.54,-0.15,9.41,27.39
19025,-0.17,-0.47,9.79,27.49
19043,-0.30,-1.02,9.54,27.46
19060,-0.45,-1.26,9.43,27.44
19077,-0.83,-1.59,9.15,27.49
19093,-0.54,-1.19,9.40,27.39
19110,-0.40,-0.95,9.53,27.56
19127,-0.31,-0.49,9.66,27.49
19143,-0.60,-0.24,9.38,27.39
19161,-0.66,-0.28,9.25,27.56
19177,-0.62,-0.70,9.36,27.37
19193,-0.37,-1.12,9.47,27.39
19212,-0.33,-1.38,9.65,27.56
19227,-0.46,-1.43,9.48,27.39
19244,-0.72,-1.00,9.17,27.49
19262,-0.71,-0.83,9.23,27.56
19277,-0.43,-0.36,9.51,27.39
19295,-0.30,-0.33,9.61,27.49
19312,-0.39,-0.44,9.56,27.46
19328,-0.66,-0.82,9.35,27.44
19345,-0.70,-1.35,9.25,27.56
19362,-0.71,-1.42,9.32,27.46
19378,-0.27,-1.27,9.57,27.49
19395,-0.24,-0.90,9.60,27.39
19412,-0.41,-0.67,9.56,27.46
19428,-0.66,-0.33,9.29,27.56
19445,-0.68,-0.47,9.27,27.46
19463,-0.51,-0.62,9.37,27.56
19479,-0.27,-1.02,9.56,27.48
19495,-0.30,-1.33,9.64,27.46
19513,-0.41,-1.33,9.55,27.56
19529,-0.89,-0.99,9.29,27.46
19546,-0.80,-0.64,9.09,27.48
19564,-0.54,-0.53,9.46,27.56
19579,-0.17,-0.52,9.58,27.39
19596,-0.19,-0.73,9.43,27.56
19614,-0.44,-0.78,9.52,27.46
19630,-0.79,-1.01,9.04,27.37
19647,-0.83,-1.08,9.34,27.49
19664,-0.38,-1.06,9.41,27.46
19680,-0.26,-1.00,9.74,27.48
19697,-0.50,-0.87,9.55,27.46
19715,-0.56,-0.81,9.34,27.46
19730,-0.72,-0.54,9.31,27.49
19747,-0.53,-0.43,9.44,27.39
19765,-0.42,-0.45,9.61,27.46
19780,-0.46,-0.86,9.58,27.56
19798,-0.67,-1.36,9.22,27.44
19815,-0.78,-1.44,9.27,27.55
19831,-0.57,-1.27,9.35,27.49
19848,-0.22,-0.75,9.66,27.39
19865,-0.22,-0.55,9.65,27.55
19881,-0.59,-0.39,9.34,27.55
19899,-0.75,-0.46,9.15,27.56
19916,-0.67,-0.69,9.31,27.44
19932,-0.41,-1.00,9.52,27.39
19948,-0.36,-1.30,9.54,27.56
19966,-0.44,-1.31,9.42,27.46
19982,-0.63,-1.01,9.20,27.39
19999,-0.58,-0.63,9.39,27.49
20017,-0.48,-0.52,9.39,27.46
20032,-0.25,-0.42,9.64,27.39
20049,-0.58,-0.74,9.44,27.46
20067,-0.62,-0.89,9.39,27.46
20083,-0.66,-1.09,9.26,27.37
20100,-0.50,-1.20,9.37,27.39
20117,-0.42,-1.17,9.46,27.56
20133,-0.33,-0.90,9.43,27.39
20150,-0.49,-0.58,9.48,27.44
20167,-0.56,-0.41,9.34,27.56
20184,-0.58,-0.43,9.36,27.37
20200,-0.51,-0.91,9.44,27.49
20218,-0.43,-1.07,9.47,27.44
20234,-0.45,-1.29,9.50,27.46
20250,-0.53,-1.11,9.38,27.56
20269,-0.68,-0.83,9.36,27.46
