time, Acceleration x, Acceleration y, acceleration z, distance
1780,0.00,0.00,0.00,31.77
1796,0.00,0.00,0.00,34.86
1812,0.00,0.00,0.00,34.86
1827,0.00,0.00,0.00,34.84
1844,0.00,0.00,0.00,34.86
1859,0.00,0.00,0.00,34.84
1874,0.00,0.00,0.00,34.84
1891,0.00,0.00,0.00,34.86
1906,0.00,0.00,0.00,34.84
1923,0.00,0.00,0.00,34.86
1938,0.00,0.00,0.00,34.86
1953,0.00,0.00,0.00,34.86
1970,0.00,0.00,0.00,34.84
1985,0.00,0.00,0.00,34.86
2001,0.00,0.00,0.00,34.84
2017,0.00,0.00,0.00,34.86
2033,0.00,0.00,0.00,34.86
2049,0.00,0.00,0.00,34.84
2064,0.00,0.00,0.00,34.86
2080,0.00,0.00,0.00,34.86
2096,0.00,0.00,0.00,34.86
2112,0.00,0.00,0.00,34.86
2127,0.00,0.00,0.00,34.86
2143,0.00,0.00,0.00,34.84
2159,0.00,0.00,0.00,34.84
2174,0.00,0.00,0.00,34.86
2191,0.00,0.00,0.00,34.86
2206,0.00,0.00,0.00,34.86
2223,0.00,0.00,0.00,34.86
2238,0.00,0.00,0.00,34.84
2253,0.00,0.00,0.00,34.86
2270,0.00,0.00,0.00,34.86
2287,-0.10,-0.70,9.93,34.86
2305,-0.09,-0.71,9.42,34.91
2322,-0.11,-0.81,9.42,34.86
2338,-0.12,-0.86,9.41,34.86
2356,-0.16,-0.90,9.39,34.86
2374,-0.15,-0.91,9.44,34.86
2390,-0.10,-0.76,9.42,34.84
2408,-0.10,-0.72,9.44,34.84
2425,-0.10,-0.63,9.40,34.86
2442,-0.12,-0.67,9.41,34.86
2459,-0.10,-0.84,9.39,34.86
2477,-0.10,-0.89,9.45,34.86
2494,-0.13,-0.87,9.40,34.86
2510,-0.16,-0.83,9.44,34.86
2528,-0.17,-0.78,9.40,34.86
2546,-0.09,-0.74,9.46,34.86
2563,-0.04,-0.71,9.43,34.86
2579,-0.15,-0.75,9.45,34.86
2597,-0.15,-0.79,9.37,34.86
2614,-0.18,-0.85,9.42,34.86
2630,-0.10,-0.86,9.44,34.84
2649,-0.08,-0.84,9.49,34.91
2664,-0.11,-0.78,9.41,34.84
2680,-0.16,-0.73,9.36,34.84
2699,-0.13,-0.71,9.37,34.86
2714,-0.03,-0.75,9.49,34.86
2731,-0.08,-0.82,9.50,34.86
2749,-0.17,-0.85,9.36,34.86
2765,-0.22,-0.85,9.37,34.86
2781,-0.10,-0.78,9.42,34.86
2799,-0.07,-0.76,9.49,34.86
2816,-0.06,-0.76,9.44,34.84
2832,-0.13,-0.76,9.40,34.84
2849,-0.14,-0.80,9.35,34.86
2866,-0.10,-0.82,9.48,34.86
2882,-0.10,-0.76,9.48,34.86
2900,-0.14,-0.78,9.44,34.84
2916,-0.20,-0.80,9.36,34.86
2932,-0.10,-0.78,9.35,34.86
2951,-0.08,-0.80,9.40,34.86
2966,-0.03,-0.76,9.46,34.84
2982,-0.14,-0.79,9.49,34.86
3001,-0.21,-0.78,9.32,34.86
3016,-0.23,-0.83,9.43,34.86
3033,-0.06,-0.78,9.45,34.86
3051,-0.13,-0.78,9.51,34.86
3067,-0.09,-1.03,8.99,34.84
3083,-0.29,-0.89,9.84,34.86
3101,0.32,-0.54,9.20,34.84
3118,0.22,-0.70,9.97,34.84
3133,-0.41,-0.24,9.51,34.86
3151,-0.62,-0.42,9.43,34.86
3168,-0.42,-0.98,9.45,34.84
3184,-0.02,-1.21,9.34,34.87
3202,-0.01,-1.24,9.30,34.79
3218,-0.37,-1.04,9.28,34.77
3234,-0.28,-0.91,9.66,34.72
3252,-0.29,-0.89,9.75,34.72
3268,-0.31,-0.70,9.63,34.63
3284,-0.38,-0.57,9.36,34.65
3303,-0.37,-0.65,9.48,34.58
3318,-0.47,-0.72,9.48,34.50
3335,-1.20,-0.74,9.27,34.38
3353,-1.09,-0.57,9.48,34.24
3368,-0.63,-0.55,9.62,34.08
3385,-0.36,-1.02,9.51,33.95
3403,-0.31,-1.22,9.50,33.91
3419,-0.82,-1.40,9.44,33.60
3435,-0.83,-1.26,9.55,33.40
3453,-0.76,-1.00,9.54,33.12
3469,-0.79,-0.65,9.41,32.92
3485,-0.67,-0.33,9.26,32.64
3504,-0.80,-0.30,9.39,32.35
3519,-1.28,-0.37,9.44,32.01
3535,-1.36,-0.87,9.30,31.66
3554,-1.25,-1.02,9.24,31.25
3569,-1.04,-1.24,9.26,30.84
3586,-0.82,-1.43,9.40,30.43
3603,-0.88,-1.52,9.23,30.05
3619,-0.76,-1.41,9.14,29.45
3636,-0.45,-0.97,9.17,29.04
3653,-0.31,-0.78,9.17,28.59
3670,0.41,-0.48,9.11,28.18
3686,0.71,-0.65,9.21,27.67
3703,0.96,-0.33,9.27,27.25
3719,1.01,-0.41,9.41,27.01
3736,1.03,-0.65,9.38,26.55
3753,1.14,-0.79,9.39,26.28
3769,1.45,-0.91,9.61,26.07
3785,1.42,-0.97,9.67,25.90
3803,1.39,-0.94,9.64,25.76
3819,1.36,-0.78,9.65,25.62
3834,1.29,-0.77,9.69,25.45
3850,0.59,-0.74,9.54,25.49
3867,0.32,-0.73,9.39,25.31
3883,0.08,-0.77,9.50,25.25
3898,0.02,-0.88,9.49,25.18
3915,-0.34,-0.93,9.39,25.14
3931,-0.77,-0.87,9.25,25.07
3947,-1.20,-0.66,9.19,24.94
3964,-1.26,-0.55,9.22,24.73
3980,-1.56,-0.33,9.05,24.51
3997,-1.69,-0.25,9.03,24.15
4015,-1.71,-0.26,8.97,23.79
4030,-1.54,-0.59,9.03,23.44
4047,-1.55,-0.81,9.03,23.13
4065,-1.25,-1.36,8.90,22.72
4080,-0.95,-1.61,9.01,22.31
4098,-0.70,-1.59,9.06,21.88
4114,-0.58,-1.35,9.08,21.40
4129,-0.27,-0.74,9.01,20.92
4147,-0.19,-0.52,9.11,20.51
4163,-0.05,-0.26,9.21,20.03
4178,0.00,-0.27,9.11,19.60
4196,0.39,-0.39,9.13,19.12
4211,0.77,-0.46,9.51,18.79
4226,0.76,-0.57,9.69,18.43
4241,0.75,-0.82,9.61,17.95
4258,0.60,-0.86,9.50,17.47
4273,0.66,-0.91,9.63,17.47
4289,0.78,-0.71,9.71,17.20
4306,1.16,-0.42,9.74,16.63
4321,1.80,-0.30,10.13,16.72
4338,2.73,-0.19,10.79,16.70
4355,3.48,-0.35,11.32,16.70
4370,3.24,-0.66,13.23,16.70
4385,2.16,-0.94,13.44,16.51
4401,-1.42,-0.98,8.43,16.56
4417,-1.96,-0.81,7.11,16.65
4432,-2.54,-0.16,6.66,16.58
4449,-1.31,0.18,7.68,16.58
4465,0.53,0.17,10.54,16.63
4481,1.44,-0.79,11.54,16.85
4498,1.01,-1.11,10.54,17.06
4512,-0.07,-1.25,8.43,17.13
4528,-0.04,-1.40,8.54,17.06
4543,0.48,-1.54,9.86,16.99
4559,0.49,-1.35,10.09,17.33
4575,0.46,-0.93,9.68,17.54
4591,0.55,-0.38,9.68,17.40
4609,0.59,-0.30,9.89,17.88
4623,0.87,-0.06,9.98,17.81
4638,0.79,-0.14,9.91,18.29
4654,1.23,-0.56,9.79,18.24
4671,1.41,-0.76,10.03,18.74
4685,1.70,-0.83,10.22,19.27
4702,1.44,-0.74,10.18,19.68
4719,1.32,-0.62,10.21,20.17
4734,1.18,-0.65,9.92,20.58
4751,1.03,-0.60,9.79,21.06
4768,0.41,-0.67,9.39,21.69
4784,0.00,-0.66,9.30,22.17
4801,-0.18,-0.73,9.29,22.62
4817,-0.07,-0.92,9.32,23.10
4833,-0.07,-0.88,9.55,23.65
4850,-0.23,-0.65,8.82,24.20
4866,-0.45,-0.54,8.21,24.70
4881,-0.44,-0.53,8.04,25.28
4897,-0.58,-0.51,8.02,25.83
4914,-0.67,-0.87,9.25,26.21
4929,-0.76,-1.08,9.44,26.69
4944,-0.63,-1.16,9.43,27.22
4963,-0.73,-1.06,9.22,27.77
4978,-0.88,-1.09,8.49,28.08
4995,-1.12,-1.24,9.01,28.56
5012,-0.96,-1.37,9.40,29.04
5028,-0.91,-1.37,9.21,29.48
5045,-0.89,-1.23,9.04,29.81
5062,-0.96,-1.20,9.13,30.22
5079,-1.02,-0.95,9.34,30.55
5095,-1.07,-0.81,9.19,30.91
5113,-1.01,-0.80,9.19,31.36
5129,-0.62,-0.79,9.36,31.60
5145,-0.57,-0.84,9.51,31.89
5164,-0.52,-0.84,9.49,32.21
5180,-0.36,-0.81,9.13,32.68
5196,-0.21,-0.83,9.21,32.85
5214,-0.21,-0.83,9.31,33.26
5230,-0.09,-0.92,9.37,33.53
5246,-0.11,-0.93,9.22,33.88
5264,-0.13,-0.97,9.20,34.29
5280,-0.07,-0.93,9.27,34.63
5297,0.20,-0.92,9.27,35.05
5315,0.29,-0.94,9.20,35.47
5330,0.51,-0.93,9.09,35.89
5348,0.42,-0.97,9.14,36.26
5365,0.41,-0.95,9.17,36.85
5382,0.19,-0.97,9.12,37.33
5398,-0.31,-0.94,9.13,37.81
5416,-0.39,-0.91,9.17,38.37
5433,-0.42,-0.80,9.50,38.86
5449,-0.58,-0.50,9.36,39.16
5467,-0.73,-0.35,9.23,39.75
5483,-1.24,0.26,9.25,40.18
5499,-1.33,0.42,9.34,40.59
5518,-1.38,0.31,9.31,40.91
5534,-1.50,-0.18,9.29,41.24
5551,-1.67,-0.48,9.62,41.62
5568,-1.62,-0.46,9.69,41.89
5584,-1.65,-0.42,9.63,42.17
5601,-1.35,-0.41,9.66,42.37
5619,-0.86,-0.49,9.51,42.48
5636,-0.79,-0.53,9.42,42.70
5652,-0.67,-0.56,9.36,42.96
5669,-0.72,-0.70,9.45,43.11
5686,-1.01,-0.84,9.51,43.40
5703,-1.38,-1.58,9.70,43.56
5720,-1.14,-2.61,9.95,43.69
5737,-1.00,-2.68,9.94,43.76
5753,-0.85,-2.00,9.44,43.90
5771,-0.88,-1.15,9.45,43.87
5787,-1.02,-0.92,9.50,43.94
5805,-0.80,-0.37,9.75,44.11
5821,-1.09,-0.33,9.51,44.18
5839,-1.20,-0.38,9.50,44.18
5859,-1.37,-0.71,9.70,44.18
5877,-1.40,-1.31,9.52,44.24
5894,-1.03,-1.37,9.07,44.00
5911,-0.78,-1.08,9.38,43.94
5929,-0.72,-0.84,9.08,43.97
5946,-0.67,-0.88,9.64,43.90
5963,-1.57,-0.67,8.25,43.76
5981,-1.80,-0.88,8.94,43.69
5998,-1.58,-1.02,8.77,43.56
6014,0.09,-0.73,10.63,43.39
6032,0.57,-0.44,11.85,43.25
6048,0.15,-0.31,11.01,43.15
6066,-0.77,-0.17,8.74,42.94
6082,-0.03,-1.07,9.53,42.85
6099,-0.12,-1.35,10.00,42.73
6117,-1.21,-1.58,9.47,42.44
6133,-1.30,-1.31,9.45,42.13
6150,-0.74,-1.01,9.79,42.03
6167,-0.71,-1.01,9.75,41.69
6183,-0.72,-1.31,9.66,41.48
6201,-0.37,-1.39,9.68,41.10
6218,0.03,-1.41,9.49,41.00
6235,-0.13,-1.15,9.37,40.66
6252,-0.62,-0.84,9.48,40.26
6270,-0.96,-0.41,9.68,39.94
6287,-0.71,-0.44,9.81,39.58
6303,-0.36,-0.79,9.54,39.27
6322,-0.53,-1.15,9.21,38.92
6338,-0.93,-1.08,9.21,38.51
6354,-1.31,-0.96,9.73,38.10
6373,-1.49,-0.83,9.75,37.50
6388,-1.53,-0.82,9.50,37.12
6405,-1.30,-0.91,9.17,36.57
6423,-1.15,-1.01,9.22,36.02
6439,-0.95,-1.11,9.24,35.46
6455,-0.59,-1.22,9.08,34.84
6473,-0.46,-1.21,9.04,34.24
6489,-0.24,-1.07,8.97,33.67
6505,0.40,-0.93,9.00,33.12
6523,0.54,-0.81,9.00,32.68
6539,0.69,-0.66,9.01,32.08
6555,0.74,-0.63,8.98,31.60
6573,1.00,-0.59,9.11,31.11
6589,1.28,-0.52,9.19,30.70
6605,1.05,-0.51,9.22,30.36
6623,0.91,-0.50,9.22,29.95
6638,0.59,-0.63,9.33,29.78
6656,0.65,-0.79,9.37,29.31
6673,0.91,-0.88,9.36,29.06
6688,0.77,-1.03,9.39,28.80
6706,0.28,-1.13,9.39,28.66
6723,0.11,-1.04,9.38,28.28
6738,-0.27,-0.68,9.39,28.08
6755,-0.46,-0.54,9.31,27.79
6772,-0.67,-0.36,9.21,27.63
6789,-0.79,-0.46,9.26,27.29
6805,-0.86,-0.58,9.28,26.93
6823,-1.07,-0.96,9.16,26.60
6839,-1.30,-1.07,9.14,26.14
6855,-1.13,-1.06,9.09,25.76
6874,-0.86,-1.00,9.13,25.35
6889,-0.79,-0.88,9.11,24.82
6905,-0.77,-0.84,9.05,24.46
6923,-0.79,-0.67,9.00,23.86
6938,-0.59,-0.73,9.02,23.48
6956,-0.44,-0.73,9.01,22.93
6973,-0.04,-0.57,9.10,22.38
6988,0.62,-0.43,9.32,21.86
7006,0.92,-0.37,9.39,21.37
7022,1.24,-0.42,9.67,21.08
7037,0.90,-0.73,9.74,20.85
7053,0.71,-0.84,9.60,20.51
7068,0.61,-1.05,9.35,20.10
7086,0.80,-0.99,9.53,19.89
7102,1.13,-0.85,9.93,19.68
7117,1.26,-0.83,9.89,19.41
7135,1.56,-0.82,9.91,19.27
7150,2.06,-0.62,10.23,19.27
7166,2.58,-0.35,10.40,19.26
7184,3.65,0.22,11.84,19.20
7199,2.45,-0.14,11.76,19.22
7216,1.22,-0.44,10.20,19.62
7232,-1.05,-1.05,7.88,19.50
7247,-1.48,-0.37,7.36,19.44
7264,-0.90,-0.68,7.88,19.75
7279,-0.11,-1.05,9.73,19.96
7294,-0.07,-1.26,10.28,20.10
7310,0.06,-1.31,9.27,20.03
7326,0.16,-1.23,9.03,20.23
7342,0.67,-1.01,9.81,20.51
7358,0.90,-0.84,10.01,20.51
7375,1.39,-0.52,9.95,20.92
7391,1.00,-0.47,9.98,21.06
7408,0.86,-0.59,9.96,21.40
7426,1.06,-0.84,9.94,21.83
7441,1.53,-1.02,9.94,22.24
7456,1.63,-1.18,9.95,22.65
7472,1.60,-1.13,9.80,23.07
7489,1.24,-0.87,9.80,23.62
7504,0.73,-0.77,9.97,24.11
7520,0.58,-0.76,10.28,24.66
7538,0.49,-0.78,10.40,25.28
7554,0.10,-0.93,9.39,25.66
7570,0.00,-0.67,6.28,26.38
7587,0.27,-0.52,5.96,27.06
7604,-0.44,-0.60,9.69,27.53
7620,-0.68,-0.59,10.34,28.25
7639,-1.15,-0.40,8.89,28.76
7654,-1.77,-0.51,8.05,29.24
7671,-1.57,-0.64,9.16,29.81
7689,-1.35,-0.61,9.41,30.29
7705,-1.20,-0.47,9.06,30.70
7721,-1.06,-0.45,8.88,31.18
7740,-1.01,-0.36,9.22,31.60
7755,-1.20,-0.37,9.40,31.94
7773,-1.45,-0.45,9.20,32.37
7790,-1.20,-0.55,9.24,32.69
7806,-0.85,-0.92,9.32,32.99
7823,-0.79,-1.12,9.35,33.33
7841,-0.98,-1.17,9.30,33.67
7856,-0.93,-1.35,9.37,6.83
7871,-0.77,-1.25,9.33,7.83
7887,-0.71,-1.24,9.36,5.61
7902,-0.32,-1.17,9.37,5.30
7917,-0.04,-1.14,9.35,5.27
7932,-0.24,-1.18,9.24,5.03
7947,-0.32,-1.16,9.26,5.06
7961,-0.41,-1.16,9.31,5.06
7976,-0.43,-0.97,9.45,5.03
7992,-0.87,-0.48,9.40,5.20
8006,-0.79,-0.37,9.36,5.61
8022,-0.26,-0.14,9.36,5.96
8038,-0.16,-0.16,9.36,5.27
8053,-0.15,-0.19,9.17,4.82
8070,-0.31,-0.27,9.15,5.03
8084,-0.53,-0.46,9.48,5.68
8098,-0.54,-0.59,9.54,5.41
8113,-0.27,-0.81,9.40,4.99
8129,-0.03,-0.99,9.16,4.72
8144,-0.32,-1.05,9.10,4.72
8159,-0.38,-0.80,9.41,4.79
8173,-0.56,-0.47,9.41,4.86
8189,-0.63,-0.37,9.40,4.79
8204,-1.43,-0.39,9.44,4.65
8220,-1.77,-0.47,9.55,5.06
8235,-2.69,-0.77,9.88,4.44
8249,-3.05,-0.83,9.90,4.65
8264,-4.26,-0.86,10.30,4.00
8281,-4.42,-0.76,10.21,4.27
8295,-2.19,-0.46,6.80,3.74
8309,-1.72,-0.34,9.12,3.50
8325,-1.75,-0.51,8.42,3.60
8340,-0.67,-0.23,9.08,3.33
8354,0.20,-0.18,10.72,3.42
8370,2.68,-0.46,12.39,3.35
8385,2.08,-1.76,9.78,3.17
8399,1.53,-2.00,8.21,3.33
8414,0.25,-2.14,8.89,3.26
8429,-0.21,-1.90,10.42,3.33
8444,-0.81,-0.78,9.40,4.17
8459,-0.97,-0.39,9.86,3.83
8475,-1.00,-0.09,9.45,4.03
8491,-0.85,-0.27,9.85,4.32
8505,-0.84,-0.48,9.92,4.02
8520,-1.22,-1.18,9.29,3.96
8536,-2.03,-1.10,9.52,3.90
8550,-2.38,-0.79,10.01,3.67
8564,-2.41,-0.62,10.06,3.83
8579,-2.10,-0.66,9.55,3.57
8595,-1.98,-0.79,9.44,3.23
8609,-1.80,-0.99,9.59,3.40
8625,-1.49,-1.24,9.71,3.05
8640,-1.08,-1.37,9.62,3.21
8654,-0.45,-1.65,10.03,2.81
8669,-0.46,-1.38,10.19,2.99
8684,-0.61,-1.11,9.72,3.21
8698,-0.39,-0.66,8.66,3.14
8715,-0.21,-0.50,8.84,2.92
8729,-0.04,-0.65,9.62,3.05
8745,0.05,-0.86,9.52,3.47
8760,0.46,-1.12,8.79,3.43
8776,0.42,-1.02,8.79,3.96
8791,0.41,-0.79,9.18,4.38
8805,0.45,-0.56,9.37,4.03
8819,0.50,-0.54,9.15,3.30
8836,0.62,-0.68,9.06,3.05
8849,0.48,-0.74,9.23,2.92
8863,0.21,-0.77,9.30,2.71
8879,-0.07,-0.89,9.29,2.78
8894,-0.09,-0.83,9.25,2.92
8908,0.14,-0.70,9.30,2.92
8925,0.14,-0.64,9.34,2.61
8939,-0.22,-0.43,9.32,2.75
8953,-0.36,-0.43,9.26,3.14
8968,-0.58,-0.67,9.30,3.19
8984,-0.71,-0.88,9.27,3.07
8999,-0.95,-1.08,9.23,2.95
9016,-0.82,-1.03,9.24,3.12
9029,-0.72,-0.90,9.16,3.12
9046,-0.74,-0.67,9.19,2.71
9060,-0.83,-0.55,9.14,2.64
9076,-0.79,-0.51,9.10,2.78
9091,-0.44,-0.76,9.11,2.95
9105,-0.47,-0.86,9.15,4.48
9119,-0.36,-1.06,9.12,4.93
9136,-0.14,-1.08,9.08,3.69
9150,0.38,-0.92,9.29,3.26
9164,0.55,-0.78,9.36,4.24
9180,1.97,-0.52,9.67,4.24
9195,1.84,-0.31,9.50,3.76
9210,1.59,-0.34,9.63,8.31
9227,1.63,-0.27,10.10,6.18
9241,2.42,-0.41,10.10,5.34
9255,2.76,-0.50,10.02,3.12
9271,3.39,-0.54,10.53,3.02
9287,3.42,-0.45,10.93,3.26
9302,0.79,-1.08,10.86,3.36
9316,-0.04,-1.30,8.67,3.79
9331,-1.49,-1.56,8.05,4.31
9347,-1.39,-1.24,8.21,4.99
9362,-0.46,-0.23,9.25,5.89
9378,0.01,0.02,9.54,5.61
9392,0.53,-0.29,9.95,5.84
9407,0.42,-0.70,9.95,7.00
9421,0.17,-1.18,9.57,8.65
9439,-0.10,-1.38,9.44,20.30
9453,-0.31,-1.12,9.33,9.40
9468,-0.25,-0.70,9.21,10.04
9484,-0.11,-0.51,9.69,22.89
9500,-0.23,-0.47,9.62,10.07
9515,-0.30,-0.52,9.36,10.25
9532,-0.31,-0.53,9.43,12.84
9548,-0.64,-0.69,9.19,23.17
9564,-0.57,-0.93,8.75,23.17
9581,-0.52,-1.00,9.14,23.20
9596,-0.50,-0.58,9.42,23.20
9612,-0.50,-0.20,9.25,23.20
9628,-0.50,0.09,9.28,23.20
9645,-0.11,0.18,9.65,23.10
9661,0.00,0.06,9.68,23.20
9675,0.03,-0.64,9.74,23.20
9693,-0.01,-0.95,9.47,23.20
9708,-0.20,-1.11,9.55,23.20
9724,-0.30,-0.95,9.32,23.20
9742,-0.37,-0.90,9.34,23.20
9757,-0.41,-0.81,9.27,23.20
9775,-0.32,-0.76,9.35,23.20
9792,0.01,-0.45,9.65,23.22
9807,0.24,-0.37,9.76,23.27
9824,0.20,-0.36,9.37,23.27
9842,0.14,-0.42,9.32,23.34
9858,0.78,-0.70,9.86,23.48
9873,1.08,-0.82,9.92,23.55
9888,2.02,-0.86,9.83,23.68
9905,2.14,-0.81,10.00,24.04
9920,1.96,-0.62,10.16,24.39
9936,1.79,-0.37,9.69,24.73
9954,1.74,-0.33,9.65,25.21
9969,1.39,-0.27,9.78,25.62
9987,1.00,-0.26,9.43,26.10
10004,0.85,-0.25,9.31,26.55
10019,0.67,-0.23,9.32,27.12
10037,0.54,-0.24,9.23,27.84
10054,0.49,-0.15,9.16,28.35
10070,0.40,-0.14,9.09,28.90
10087,0.13,-0.09,9.17,29.60
10104,-0.06,-0.18,9.28,30.24
10121,-0.45,-0.17,10.32,30.77
10137,-0.26,-0.23,11.16,31.39
10156,-0.16,-0.28,11.35,32.08
10172,-0.78,-0.68,7.13,32.75
10188,-0.71,-1.31,5.56,33.26
10207,-0.61,-1.62,6.51,33.95
10222,-0.23,-1.92,10.19,34.50
10238,-0.71,-1.69,9.77,35.06
10257,-1.21,-1.19,8.56,35.68
10273,-1.38,-0.55,8.67,36.23
10290,-1.39,-0.13,9.51,36.71
10308,-1.41,0.05,9.48,37.26
10327,-1.49,-0.03,9.16,37.83
10344,-1.30,-0.39,9.31,38.24
10360,-1.21,-1.03,9.61,38.65
10377,-1.35,-1.14,9.54,39.06
10394,-1.14,-1.19,9.33,39.40
10411,-1.06,-0.97,9.36,39.82
10427,-1.09,-0.66,9.45,40.18
10445,-0.88,-0.38,9.47,40.52
10462,-1.01,-0.20,9.27,40.79
10478,-1.07,-0.23,9.27,41.14
10496,-0.90,-0.50,9.53,41.31
10512,-1.04,-0.82,9.50,41.58
10529,-1.15,-0.90,9.50,41.86
10548,-1.04,-1.04,9.53,42.13
10564,-0.90,-1.08,9.51,42.36
10582,-1.03,-0.89,9.46,42.54
10600,-1.15,-0.84,9.46,42.84
10616,-0.82,-0.55,9.68,43.04
10633,-1.13,-0.39,9.39,43.28
10651,-1.37,-0.40,9.40,43.32
10669,-1.88,-0.39,9.72,43.56
10687,-1.93,-0.58,10.15,43.52
10703,-2.37,-0.83,9.95,43.52
10722,-2.59,-0.90,9.88,43.45
10740,-2.27,-1.04,8.83,43.39
10759,-0.75,-0.50,9.82,43.49
10775,0.09,-0.04,8.89,43.42
10792,-0.64,-0.20,9.83,43.28
10812,-1.10,-0.30,9.40,43.11
10828,-2.51,-0.63,8.46,42.97
10845,-2.45,-0.52,8.03,42.77
10863,1.26,-0.59,13.51,42.63
10880,1.91,-0.98,14.57,42.41
10896,-1.13,-0.95,7.55,42.27
10913,-0.79,-1.15,10.06,42.17
10930,-0.47,-1.00,11.18,41.98
10946,-1.00,-0.60,10.01,41.69
10963,-1.31,-0.35,8.78,41.41
10980,-1.04,-0.37,9.56,41.21
10997,-0.46,-0.72,10.14,40.76
11015,-0.65,-1.14,9.43,40.52
11031,-0.73,-1.33,9.37,40.25
11047,-0.55,-1.42,9.76,39.90
11065,-0.81,-1.25,9.73,39.54
11080,-0.96,-1.15,9.58,39.13
11098,-1.41,-0.77,9.69,38.72
11115,-1.41,-0.61,9.70,38.13
11133,-1.48,-0.56,9.65,37.69
11151,-1.72,-0.58,9.38,37.12
11167,-1.47,-1.27,9.31,36.52
11184,-1.56,-1.42,9.31,35.89
11202,-1.45,-1.44,9.27,35.20
11218,-1.16,-1.11,9.17,34.58
11235,-1.07,-0.80,8.99,33.88
11253,-0.99,-0.65,8.82,33.05
11269,-0.71,-0.50,8.74,32.37
11285,-0.27,-0.41,8.79,31.66
11303,-0.03,-0.46,8.82,30.91
11319,0.51,-0.56,8.76,30.29
11335,0.79,-0.53,8.87,29.67
11354,1.13,-0.52,9.04,28.99
11369,1.08,-0.66,9.10,28.42
11385,1.22,-0.83,9.16,27.94
11403,1.35,-0.86,9.20,27.49
11419,1.74,-0.70,9.42,27.05
11436,1.69,-0.46,9.48,26.62
11453,1.42,-0.39,9.51,26.28
11468,0.98,-0.37,9.49,26.10
11486,0.79,-0.37,9.45,25.73
11503,0.52,-0.46,9.44,25.45
11518,0.38,-0.61,9.44,25.25
11536,0.03,-0.61,9.45,24.97
11553,-0.32,-0.66,9.32,24.70
11569,-0.24,-0.67,9.23,24.42
11586,-0.15,-0.63,9.33,24.15
11602,-0.14,-0.48,9.43,24.03
11618,-0.07,-0.51,9.37,23.77
11635,-0.03,-0.65,9.39,23.48
11654,-0.14,-0.80,9.42,23.22
11669,-0.29,-0.88,9.31,23.00
11686,-0.30,-0.81,9.28,22.62
11703,-0.26,-0.49,9.32,22.38
11718,-0.36,-0.37,9.31,22.24
11736,-0.53,-0.35,9.28,21.90
11753,-0.72,-0.47,9.16,21.54
11768,-0.77,-0.85,9.12,21.35
11784,-0.85,-0.94,9.08,20.92
11799,-0.77,-0.96,9.05,20.58
11816,-0.69,-0.87,9.07,20.23
11833,-0.53,-0.67,9.15,19.89
11848,-0.40,-0.45,9.21,19.62
11866,-0.38,-0.45,9.21,19.27
11881,-0.39,-0.59,9.16,18.64
11897,-0.38,-0.67,9.16,18.23
11915,-0.10,-0.76,9.17,17.81
11930,0.00,-0.73,9.36,17.68
11947,0.12,-0.68,9.39,17.45
11963,0.18,-0.53,9.39,17.06
11978,0.01,-0.37,9.47,16.44
11996,0.06,-0.38,9.44,16.08
12011,0.57,-0.56,9.49,16.24
12025,0.76,-0.66,9.69,15.60
12041,1.42,-0.83,10.18,15.81
12058,2.38,-0.83,10.55,15.43
12072,3.43,-0.37,11.27,15.33
12089,4.28,-0.31,12.53,15.70
12104,2.89,-0.35,14.59,15.82
12121,-0.42,-0.93,9.70,15.60
12135,-1.06,-0.89,7.97,15.67
12150,-1.50,-0.43,7.05,15.81
12168,-0.67,-0.32,7.73,16.24
12182,-0.19,0.35,9.84,16.22
12199,0.13,0.54,10.10,16.01
12216,0.52,-0.05,9.29,16.44
12231,0.69,-0.94,10.34,16.56
12248,0.86,-1.22,10.43,16.58
12263,1.01,-1.31,9.84,17.06
12279,1.02,-1.21,9.83,17.27
12297,0.85,-1.03,10.01,17.40
12312,1.19,-0.57,9.94,17.75
12326,1.34,-0.43,10.02,18.31
12342,1.56,-0.32,10.27,18.71
12359,1.50,-0.36,10.20,19.12
12375,1.27,-0.71,9.97,19.55
12390,1.22,-0.72,9.92,20.23
12405,1.09,-0.77,9.18,20.85
12422,0.65,-0.75,9.03,21.42
12437,0.53,-0.65,9.17,22.09
12452,-0.05,-0.49,9.20,22.72
12470,-0.19,-0.53,9.04,23.41
12485,-0.80,-0.67,8.57,23.96
12503,-1.06,-0.56,8.66,24.58
12520,-0.99,-0.44,8.78,25.11
12535,-1.02,-0.38,8.92,25.59
12553,-1.07,-0.47,8.94,26.21
12570,-0.79,-0.40,8.96,26.76
12585,-0.88,-0.45,9.05,27.25
12603,-0.89,-0.45,8.98,27.73
12620,-0.81,-0.50,9.00,28.28
12636,-0.73,-0.52,9.09,28.70
12653,-0.77,-0.54,9.18,29.24
12672,-0.83,-0.46,9.18,29.74
12687,-0.86,-0.30,9.10,30.15
12704,-0.74,-0.20,9.14,30.67
12722,-0.68,-0.15,9.21,31.05
12738,-0.41,-0.05,9.44,31.58
12754,-0.13,0.01,9.73,31.89
12773,-0.11,0.04,9.87,32.35
12788,-0.19,0.11,10.25,32.78
12806,-0.39,-0.04,10.70,33.28
12823,-0.65,-0.20,8.09,33.67
12839,-0.89,-1.47,6.55,34.08
12856,-0.58,-1.96,9.76,34.51
12874,-0.38,-2.07,10.71,34.99
12891,-0.55,-1.69,9.27,35.41
12906,-1.08,-1.14,8.58,35.82
12924,-1.09,-0.99,9.14,36.23
12941,-1.21,-0.47,9.75,36.57
12957,-1.41,-0.24,9.26,36.85
12976,-1.44,-0.17,9.24,37.21
12994,-1.21,-0.33,9.56,37.55
13011,-1.14,-0.68,9.50,37.83
13028,-1.11,-0.86,9.39,38.10
13046,-0.82,-0.94,9.50,38.27
13065,-0.55,-0.87,9.42,38.65
13081,-0.55,-0.63,9.29,38.86
13097,-0.59,-0.47,9.38,39.13
13116,-0.72,-0.43,9.41,39.30
13132,-0.82,-0.31,9.42,39.52
13149,-1.11,-0.32,9.41,39.73
13167,-1.21,-0.35,9.42,40.02
13184,-1.18,-0.49,9.58,40.18
13200,-0.98,-0.93,9.63,40.31
13217,-0.80,-1.09,9.64,40.52
13234,-0.70,-1.31,9.34,40.66
13250,-1.09,-1.18,9.27,40.79
13267,-1.78,-0.85,9.80,40.86
13284,-1.97,-0.68,9.89,40.86
13300,-2.95,-0.19,9.70,40.86
13319,-2.95,0.30,8.84,40.69
13335,-1.15,0.39,8.29,40.62
13351,-0.47,-0.07,10.19,40.55
13369,-1.23,-0.62,8.80,40.40
13385,-2.05,-0.66,9.09,40.28
13402,-2.61,-0.43,7.92,40.14
13419,-0.74,0.02,10.50,39.94
13435,2.96,-1.73,12.33,39.85
13452,3.61,-4.64,10.89,39.92
13469,1.66,-1.31,9.51,40.04
13486,-0.45,-0.27,11.28,40.04
13502,-1.78,-0.25,7.19,40.04
13519,-1.71,0.29,9.98,40.02
13536,-0.62,0.56,9.10,40.04
13552,0.61,0.06,11.03,40.04
13570,-0.08,-1.50,9.01,40.04
13586,-1.00,-1.87,9.67,40.04
13602,-1.19,-1.95,8.48,40.04
13620,-0.05,-1.51,10.25,40.02
13636,0.55,-0.99,9.84,40.04
13652,-0.10,-0.01,10.22,40.04
13671,-0.90,0.06,8.63,40.02
13686,-1.32,-0.33,9.40,40.04
13703,-0.22,-0.77,9.15,40.04
13721,0.52,-1.56,10.34,39.92
13737,0.38,-1.53,9.68,40.04
13754,-1.10,-1.35,9.49,40.04
13771,-0.87,-0.80,8.71,39.94
13788,-0.19,-0.37,9.83,39.94
13804,0.56,-0.16,9.57,39.94
13821,-0.45,-0.45,9.68,40.04
13838,-0.73,-0.67,9.05,40.04
13854,-0.85,-1.45,9.41,39.94
13872,0.05,-1.46,9.33,40.04
13889,0.33,-1.42,9.73,40.04
13906,-0.01,-0.86,9.28,40.04
13923,-0.89,-0.36,9.27,40.04
13941,-0.73,-0.25,9.01,39.94
13960,-0.29,-0.32,9.66,39.94
13976,0.12,-0.84,9.45,40.04
13993,-0.58,-1.46,9.21,39.94
14012,-0.67,-1.46,9.01,40.04
14030,-0.48,-1.32,9.50,40.11
14047,0.24,-0.61,9.54,40.04
14064,-0.30,-0.28,9.26,40.04
14083,-0.58,-0.26,9.07,40.09
14101,-0.89,-0.53,9.39,40.04
14117,-0.12,-1.15,9.50,40.04
14135,0.17,-1.44,9.73,39.92
14153,-0.05,-1.34,9.43,39.92
14172,-0.61,-0.99,9.43,40.02
14188,-0.56,-0.33,9.45,40.04
14204,-0.08,-0.30,9.47,40.04
14223,0.00,-0.55,9.59,40.04
14239,-0.24,-0.98,9.47,40.04
14256,-0.63,-1.33,9.50,40.04
14274,-0.52,-1.34,9.44,39.94
14290,-0.21,-0.96,9.67,40.04
14307,-0.14,-0.71,9.43,40.04
14324,-0.38,-0.53,9.40,40.02
14342,-0.37,-0.49,9.34,40.04
14359,-0.11,-0.77,9.66,39.92
14375,-0.05,-0.93,9.39,40.04
14394,-0.45,-1.08,9.54,40.04
14412,-0.72,-1.07,9.25,40.04
14431,-0.41,-1.03,9.40,40.04
14446,0.20,-1.05,9.48,40.04
14465,0.33,-0.85,9.74,40.02
14483,-0.08,-0.46,9.46,40.09
14500,-1.01,-0.29,9.37,40.04
14517,-0.81,-0.59,8.95,40.04
14535,-0.36,-1.35,9.70,40.04
14554,0.30,-1.71,9.51,40.04
14572,-0.04,-1.22,9.67,40.04
14588,-0.46,-0.48,9.10,40.02
14605,-0.75,-0.17,9.49,40.04
14623,-0.36,-0.17,9.22,40.04
14640,-0.08,-0.81,9.63,40.04
14657,-0.30,-1.24,9.35,40.04
14675,-0.57,-1.47,9.45,40.04
14692,-0.35,-1.38,9.21,40.04
14708,0.03,-0.72,9.50,40.04
14727,0.05,-0.47,9.35,40.04
14743,-0.49,-0.25,9.39,40.02
14759,-0.55,-0.46,9.21,40.04
14778,-0.53,-0.67,9.46,40.04
14794,0.00,-1.22,9.39,40.04
14812,-0.26,-1.28,9.32,40.04
14828,-0.71,-1.20,9.38,40.04
14845,-0.77,-1.10,9.40,40.02
14864,-0.20,-0.60,9.46,39.92
14880,0.22,-0.37,9.56,39.94
14898,0.07,-0.34,9.31,40.04
14916,-0.57,-0.45,9.70,40.04
14935,-0.63,-0.93,9.14,39.95
14951,-0.06,-1.52,9.20,40.04
14968,-0.04,-1.64,9.19,40.04
14987,-0.28,-1.69,9.86,40.09
15003,-0.31,-0.61,9.44,40.04
15020,-0.06,0.40,9.10,40.02
15039,-0.16,0.39,9.41,39.92
15055,-0.45,-0.23,9.68,39.92
15072,-0.66,-1.70,9.52,39.94
15089,-0.61,-1.99,9.66,40.02
15108,-0.09,-1.75,9.62,40.04
15126,0.02,-0.90,9.56,40.02
15142,-0.39,0.01,9.67,40.02
15160,-0.45,0.09,9.10,40.04
15178,-0.57,-0.33,9.64,40.04
15195,-0.31,-0.91,9.31,40.02
15211,-0.31,-1.71,9.79,40.04
15229,-0.20,-1.72,9.34,40.02
15246,-0.33,-1.26,9.74,40.02
15262,-0.19,-0.60,9.16,40.02
15281,-0.40,-0.21,9.63,39.94
15297,-0.33,-0.11,9.16,40.02
15313,-0.35,-0.59,9.63,40.04
15331,-0.08,-1.16,9.24,40.04
15348,-0.18,-1.58,9.72,40.04
15366,-0.27,-1.52,9.18,40.02
15383,-0.53,-0.99,9.46,40.04
15398,-0.44,-0.67,9.18,40.02
15416,-0.26,-0.23,9.60,40.04
15433,-0.08,-0.26,9.29,40.04
15450,-0.17,-0.40,9.53,40.04
15466,-0.22,-1.05,9.24,40.02
15483,-0.31,-1.44,9.52,39.92
15502,-0.34,-1.40,9.36,40.04
15520,-0.50,-1.21,9.52,40.04
15538,-0.49,-0.59,9.29,39.94
15554,-0.08,-0.34,9.41,39.92
15572,0.00,-0.32,9.43,40.02
15590,-0.03,-0.46,9.67,40.04
15606,-0.38,-1.05,9.37,40.02
15624,-0.53,-1.44,9.22,40.02
15642,-0.45,-1.45,9.32,40.02
15661,-0.29,-1.20,9.56,40.04
15678,-0.28,-0.46,9.48,40.04
15694,-0.27,-0.30,9.30,40.02
15713,-0.27,-0.38,9.42,40.04
